,trial,coherence,coherence_bin,correct_side,target_onset,checker_onset,decision,decision_time,correct_decision,green_side,chosen_color
0,0,0.8858700510766956,0.9,0.0,405.0,987.0,1.0,-1362.0,0,1.0,0.0
1,1,-0.4266418745134551,-0.4,0.0,482.0,628.0,0.0,2720.0,1,0.0,0.0
2,2,-0.8298300488691647,-0.8,0.0,428.0,507.0,0.0,475.0,1,0.0,0.0
3,3,-0.6535870110215802,-0.7,0.0,395.0,761.0,0.0,2044.0,1,0.0,0.0
4,4,0.34706223419640747,0.3,1.0,471.0,617.0,0.0,3912.0,0,0.0,0.0
5,5,-0.03804555039459434,-0.0,0.0,381.0,810.0,0.0,3809.0,1,0.0,0.0
6,6,-0.09833647414183577,-0.1,1.0,363.0,911.0,1.0,3726.0,1,1.0,0.0
7,7,0.4592213307841736,0.5,0.0,457.0,508.0,0.0,-925.0,1,1.0,1.0
8,8,-0.2188577769682003,-0.2,1.0,462.0,723.0,1.0,3815.0,1,1.0,0.0
9,9,-0.6579797237457092,-0.7,0.0,342.0,558.0,0.0,1100.0,1,0.0,0.0
10,10,-0.7760249774406194,-0.8,0.0,453.0,563.0,0.0,694.0,1,0.0,0.0
11,11,0.7871692852377438,0.8,0.0,432.0,859.0,0.0,239.0,1,1.0,1.0
12,12,0.07900235570417369,0.1,1.0,364.0,575.0,0.0,2751.0,0,0.0,0.0
13,13,0.06635379598322155,0.1,0.0,349.0,765.0,1.0,2856.0,0,1.0,0.0
14,14,-0.2851230764149266,-0.3,1.0,345.0,915.0,1.0,430.0,1,1.0,0.0
15,15,0.04988080700392716,0.0,1.0,430.0,648.0,0.0,3922.0,0,0.0,0.0
16,16,0.5200367730936163,0.5,0.0,403.0,919.0,1.0,78.0,0,1.0,0.0
17,17,0.5303023936089007,0.5,1.0,410.0,972.0,0.0,-1322.0,0,0.0,0.0
18,18,-0.28983158037297796,-0.3,1.0,361.0,703.0,0.0,-1044.0,0,1.0,1.0
19,19,0.052162169532261826,0.1,1.0,395.0,625.0,1.0,3980.0,1,0.0,1.0
20,20,0.8745407092670191,0.9,0.0,356.0,778.0,0.0,396.0,1,1.0,1.0
21,21,0.8452006360426733,0.8,1.0,381.0,564.0,1.0,1935.0,1,0.0,1.0
22,22,0.07719741673608238,0.1,0.0,264.0,693.0,1.0,4043.0,0,1.0,0.0
23,23,0.6668339976131535,0.7,1.0,278.0,581.0,1.0,521.0,1,0.0,1.0
24,24,0.0864347538778445,0.1,0.0,335.0,934.0,0.0,-1139.0,1,1.0,1.0
25,25,0.4600003439295349,0.5,1.0,454.0,960.0,1.0,2496.0,1,0.0,1.0
26,26,-0.8530209861038806,-0.9,1.0,457.0,664.0,1.0,3879.0,1,1.0,0.0
27,27,-0.8991116249127751,-0.9,1.0,376.0,718.0,1.0,316.0,1,1.0,0.0
28,28,-0.8256218656864293,-0.8,1.0,414.0,815.0,0.0,-1199.0,0,1.0,1.0
29,29,0.20542333675342006,0.2,0.0,289.0,799.0,1.0,3912.0,0,1.0,0.0
30,30,-0.503917117319354,-0.5,0.0,491.0,544.0,0.0,-955.0,1,0.0,0.0
31,31,0.2636531680159443,0.3,1.0,470.0,889.0,0.0,-1329.0,0,0.0,0.0
32,32,-0.08917423890923148,-0.1,0.0,391.0,582.0,0.0,3817.0,1,0.0,0.0
33,33,-0.5432427133266586,-0.5,1.0,273.0,574.0,1.0,4153.0,1,1.0,0.0
34,34,0.7070195104366866,0.7,1.0,348.0,607.0,1.0,635.0,1,0.0,1.0
35,35,-0.3312909542332979,-0.3,1.0,463.0,519.0,1.0,3098.0,1,1.0,0.0
36,36,0.1010658482852872,0.1,0.0,310.0,868.0,1.0,3822.0,0,1.0,0.0
37,37,-0.6135112491756636,-0.6,1.0,426.0,855.0,1.0,-1221.0,1,1.0,0.0
38,38,0.3449156885870738,0.3,1.0,353.0,730.0,1.0,107.0,1,0.0,1.0
39,39,0.7576860006687555,0.8,0.0,288.0,838.0,0.0,1394.0,1,1.0,1.0
40,40,0.06180865896713528,0.1,0.0,329.0,845.0,0.0,-1134.0,1,1.0,1.0
41,41,-0.8871540391768478,-0.9,0.0,362.0,554.0,0.0,2004.0,1,0.0,0.0
42,42,-0.21938803369069249,-0.2,0.0,392.0,735.0,0.0,3873.0,1,0.0,0.0
43,43,-0.6244821571573675,-0.6,0.0,290.0,702.0,1.0,-972.0,0,0.0,1.0
44,44,0.0795681730504243,0.1,0.0,271.0,919.0,0.0,3810.0,1,1.0,1.0
45,45,0.5533917147813624,0.6,0.0,407.0,683.0,0.0,980.0,1,1.0,1.0
46,46,0.8597497711885062,0.9,0.0,387.0,953.0,0.0,1830.0,1,1.0,1.0
47,47,0.12515873134951938,0.1,1.0,449.0,842.0,1.0,1369.0,1,0.0,1.0
48,48,0.39937633881337387,0.4,1.0,438.0,993.0,1.0,3569.0,1,0.0,1.0
49,49,0.419425983117773,0.4,0.0,407.0,537.0,1.0,4056.0,0,1.0,0.0
50,50,0.5446643326007544,0.5,0.0,410.0,683.0,1.0,-1023.0,0,1.0,0.0
51,51,-0.5581022749548534,-0.6,1.0,347.0,711.0,1.0,2462.0,1,1.0,0.0
52,52,0.8008020390107308,0.8,1.0,267.0,750.0,1.0,693.0,1,0.0,1.0
53,53,0.3463727922481533,0.3,1.0,467.0,981.0,0.0,-1428.0,0,0.0,0.0
54,54,0.13424094058614255,0.1,1.0,324.0,559.0,0.0,4117.0,0,0.0,0.0
55,55,-0.0812477546578293,-0.1,0.0,496.0,998.0,0.0,-1484.0,1,0.0,0.0
56,56,-0.5111025616648759,-0.5,1.0,488.0,594.0,1.0,2488.0,1,1.0,0.0
57,57,0.2863279668397215,0.3,0.0,450.0,938.0,1.0,1842.0,0,1.0,0.0
58,58,0.7432133642852422,0.7,0.0,354.0,883.0,0.0,-1197.0,1,1.0,1.0
59,59,0.1614965321178915,0.2,1.0,345.0,961.0,0.0,-1246.0,0,0.0,0.0
60,60,-0.5172676774381664,-0.5,0.0,351.0,860.0,0.0,3789.0,1,0.0,0.0
61,61,-0.08757795653472344,-0.1,0.0,355.0,970.0,0.0,-1275.0,1,0.0,0.0
62,62,-0.08259030241742882,-0.1,1.0,474.0,607.0,0.0,3489.0,0,1.0,1.0
63,63,-0.47930858905950813,-0.5,0.0,401.0,924.0,0.0,-1295.0,1,0.0,0.0
64,64,-0.7066388674222916,-0.7,1.0,311.0,758.0,1.0,2021.0,1,1.0,0.0
65,65,-0.0871087199250099,-0.1,1.0,381.0,684.0,1.0,-1045.0,1,1.0,0.0
66,66,0.3283948703483316,0.3,1.0,480.0,832.0,1.0,3378.0,1,0.0,1.0
67,67,-0.19526497212026617,-0.2,0.0,256.0,604.0,0.0,4140.0,1,0.0,0.0
68,68,-0.6203519938866429,-0.6,1.0,383.0,605.0,1.0,1872.0,1,1.0,0.0
69,69,-0.23147881887128707,-0.2,1.0,325.0,751.0,1.0,3924.0,1,1.0,0.0
70,70,-0.2504356651799998,-0.3,1.0,468.0,839.0,0.0,-1277.0,0,1.0,1.0
71,71,-0.8807619694077622,-0.9,0.0,352.0,750.0,0.0,-1052.0,1,0.0,0.0
72,72,-0.5934248030994027,-0.6,1.0,291.0,589.0,1.0,3740.0,1,1.0,0.0
73,73,0.5525705403520326,0.6,0.0,355.0,950.0,1.0,3695.0,0,1.0,0.0
74,74,-0.46631894187568307,-0.5,0.0,317.0,876.0,0.0,-1133.0,1,0.0,0.0
75,75,0.11463683119885715,0.1,0.0,297.0,926.0,0.0,3777.0,1,1.0,1.0
76,76,0.5957508503861747,0.6,0.0,281.0,580.0,0.0,4139.0,1,1.0,1.0
77,77,-0.24913802397583495,-0.2,0.0,354.0,782.0,0.0,3864.0,1,0.0,0.0
78,78,-0.17171137576182982,-0.2,1.0,484.0,718.0,0.0,-1192.0,0,1.0,1.0
79,79,-0.22581200347436747,-0.2,0.0,414.0,986.0,0.0,-560.0,1,0.0,0.0
80,80,-0.12106662650030375,-0.1,1.0,380.0,748.0,0.0,-1008.0,0,1.0,1.0
81,81,-0.5272551907612091,-0.5,1.0,256.0,905.0,1.0,3839.0,1,1.0,0.0
82,82,0.33707209512194847,0.3,0.0,359.0,689.0,1.0,2962.0,0,1.0,0.0
83,83,-0.5649680719416406,-0.6,1.0,294.0,811.0,1.0,655.0,1,1.0,0.0
84,84,0.6459793469931224,0.6,0.0,495.0,601.0,0.0,-1036.0,1,1.0,1.0
85,85,0.1287012042472201,0.1,1.0,403.0,954.0,0.0,1923.0,0,0.0,0.0
86,86,0.00044315153083240855,0.0,1.0,472.0,882.0,0.0,-1324.0,0,0.0,0.0
87,87,0.10666101441568776,0.1,1.0,339.0,765.0,0.0,596.0,0,0.0,0.0
88,88,0.8357518675215551,0.8,0.0,315.0,955.0,0.0,1260.0,1,1.0,1.0
89,89,-0.7006822683946219,-0.7,1.0,306.0,785.0,1.0,489.0,1,1.0,0.0
90,90,-0.7517305887457528,-0.8,0.0,276.0,755.0,0.0,2279.0,1,0.0,0.0
91,91,-0.43002071616267595,-0.4,1.0,275.0,822.0,1.0,2793.0,1,1.0,0.0
92,92,0.6895059974157242,0.7,0.0,484.0,671.0,0.0,-1105.0,1,1.0,1.0
93,93,-0.11344562510776957,-0.1,1.0,265.0,831.0,1.0,3904.0,1,1.0,0.0
94,94,0.4625601183675857,0.5,1.0,441.0,737.0,0.0,22.0,0,0.0,0.0
95,95,-0.5974250768479068,-0.6,0.0,265.0,683.0,0.0,952.0,1,0.0,0.0
96,96,-0.8514145511114357,-0.9,1.0,418.0,874.0,0.0,-1252.0,0,1.0,1.0
97,97,0.3955203577522911,0.4,1.0,395.0,832.0,0.0,-1167.0,0,0.0,0.0
98,98,-0.6063122525076966,-0.6,1.0,347.0,933.0,1.0,3720.0,1,1.0,0.0
99,99,-0.4761421711778349,-0.5,0.0,351.0,693.0,0.0,3956.0,1,0.0,0.0
100,100,-0.07053790210342181,-0.1,1.0,294.0,995.0,1.0,-1249.0,1,1.0,0.0
101,101,-0.46131157515053717,-0.5,1.0,363.0,870.0,1.0,3767.0,1,1.0,0.0
102,102,0.31726231645098923,0.3,1.0,488.0,774.0,1.0,3738.0,1,0.0,1.0
103,103,-0.25695562928122584,-0.3,1.0,463.0,503.0,1.0,4034.0,1,1.0,0.0
104,104,-0.6639721250946178,-0.7,1.0,297.0,500.0,1.0,1133.0,1,1.0,0.0
105,105,-0.23323371578929442,-0.2,0.0,497.0,732.0,0.0,3771.0,1,0.0,0.0
106,106,0.21735284806423782,0.2,1.0,363.0,625.0,1.0,-928.0,1,0.0,1.0
107,107,0.6280130368763411,0.6,1.0,384.0,936.0,0.0,-1290.0,0,0.0,0.0
108,108,-0.44098807106807836,-0.4,1.0,380.0,847.0,1.0,3773.0,1,1.0,0.0
109,109,0.22297718888695528,0.2,0.0,460.0,702.0,0.0,3838.0,1,1.0,1.0
110,110,-0.8536358067072155,-0.9,0.0,430.0,559.0,0.0,141.0,1,0.0,0.0
111,111,-0.8352764814302371,-0.8,1.0,346.0,782.0,1.0,1992.0,1,1.0,0.0
112,112,-0.784948895453123,-0.8,0.0,485.0,631.0,1.0,-166.0,0,0.0,1.0
113,113,0.5009371895168998,0.5,0.0,262.0,957.0,0.0,3781.0,1,1.0,1.0
114,114,-0.030388522557019848,-0.0,0.0,321.0,774.0,0.0,-1085.0,1,0.0,0.0
115,115,0.5280875988305814,0.5,1.0,455.0,911.0,1.0,824.0,1,0.0,1.0
116,116,-0.007214276256930385,-0.0,1.0,499.0,880.0,0.0,-1349.0,0,1.0,1.0
117,117,0.06847577862078436,0.1,0.0,393.0,958.0,0.0,1649.0,1,1.0,1.0
118,118,0.0741240038750719,0.1,1.0,336.0,850.0,1.0,-1146.0,1,0.0,1.0
119,119,0.00024217951299143614,0.0,0.0,487.0,789.0,1.0,-306.0,0,1.0,0.0
120,120,0.34275568977391113,0.3,1.0,437.0,725.0,0.0,-1132.0,0,0.0,0.0
121,121,-0.3046911983364593,-0.3,0.0,358.0,723.0,0.0,-1011.0,1,0.0,0.0
122,122,-0.6045566716839043,-0.6,0.0,314.0,579.0,0.0,4107.0,1,0.0,0.0
123,123,-0.02191767279231216,-0.0,1.0,497.0,806.0,0.0,-1263.0,0,1.0,1.0
124,124,0.8699534891588269,0.9,0.0,465.0,763.0,0.0,-1218.0,1,1.0,1.0
125,125,0.3773720924732241,0.4,0.0,418.0,988.0,0.0,3594.0,1,1.0,1.0
126,126,0.3983912846855072,0.4,1.0,311.0,526.0,0.0,-27.0,0,0.0,0.0
127,127,0.38164267336895474,0.4,0.0,373.0,914.0,0.0,3713.0,1,1.0,1.0
128,128,-0.5162661499177503,-0.5,0.0,394.0,500.0,0.0,-224.0,1,0.0,0.0
129,129,0.5760474008231952,0.6,0.0,451.0,941.0,0.0,3608.0,1,1.0,1.0
130,130,0.8583886352965665,0.9,1.0,486.0,896.0,1.0,198.0,1,0.0,1.0
131,131,0.2941045802397121,0.3,1.0,419.0,720.0,0.0,471.0,0,0.0,0.0
132,132,-0.24770707073884846,-0.2,0.0,294.0,634.0,0.0,-908.0,1,0.0,0.0
133,133,-0.49016833175503044,-0.5,0.0,431.0,500.0,0.0,429.0,1,0.0,0.0
134,134,-0.30542147721950397,-0.3,0.0,363.0,681.0,0.0,-1024.0,1,0.0,0.0
135,135,-0.31704330897081123,-0.3,1.0,318.0,784.0,1.0,3898.0,1,1.0,0.0
136,136,-0.3154426357598623,-0.3,1.0,499.0,703.0,1.0,3798.0,1,1.0,0.0
137,137,-0.6767873605441849,-0.7,0.0,476.0,895.0,0.0,2249.0,1,0.0,0.0
138,138,-0.33318003142028163,-0.3,1.0,444.0,685.0,1.0,-1089.0,1,1.0,0.0
139,139,-0.6008497032783214,-0.6,1.0,450.0,914.0,1.0,2856.0,1,1.0,0.0
140,140,0.08186459678298552,0.1,0.0,300.0,839.0,0.0,3861.0,1,1.0,1.0
141,141,0.14617313036182844,0.1,1.0,353.0,704.0,1.0,3943.0,1,0.0,1.0
142,142,0.8984693642207161,0.9,1.0,293.0,766.0,1.0,881.0,1,0.0,1.0
143,143,-0.8584896638649953,-0.9,1.0,488.0,876.0,1.0,536.0,1,1.0,0.0
144,144,-0.401552792336691,-0.4,0.0,318.0,884.0,0.0,-1132.0,1,0.0,0.0
145,145,-0.6389511094793908,-0.6,1.0,275.0,904.0,1.0,671.0,1,1.0,0.0
146,146,0.28481160132294947,0.3,1.0,472.0,856.0,1.0,2462.0,1,0.0,1.0
147,147,0.3075740865206126,0.3,0.0,432.0,806.0,1.0,3762.0,0,1.0,0.0
148,148,-0.3182855306057579,-0.3,0.0,452.0,843.0,0.0,3705.0,1,0.0,0.0
149,149,0.45477484655964096,0.5,0.0,492.0,818.0,1.0,-410.0,0,1.0,0.0
150,150,0.16445600998951926,0.2,0.0,413.0,912.0,1.0,3675.0,0,1.0,0.0
151,151,-0.15330292862181816,-0.2,0.0,302.0,944.0,0.0,-1226.0,1,0.0,0.0
152,152,0.6210492587941404,0.6,0.0,297.0,608.0,0.0,725.0,1,1.0,1.0
153,153,0.31721744843724886,0.3,1.0,415.0,527.0,1.0,1218.0,1,0.0,1.0
154,154,0.1645413588423673,0.2,1.0,288.0,734.0,1.0,3978.0,1,0.0,1.0
155,155,-0.27315881982037216,-0.3,1.0,415.0,506.0,1.0,4079.0,1,1.0,0.0
156,156,0.7058287229544965,0.7,0.0,251.0,817.0,0.0,-1008.0,1,1.0,1.0
157,157,0.4096425969134013,0.4,1.0,258.0,673.0,1.0,4069.0,1,0.0,1.0
158,158,0.42952338645797494,0.4,1.0,393.0,853.0,1.0,2014.0,1,0.0,1.0
159,159,0.577211777308802,0.6,0.0,398.0,598.0,0.0,4004.0,1,1.0,1.0
160,160,0.7904121564225602,0.8,1.0,419.0,543.0,1.0,138.0,1,0.0,1.0
161,161,-0.8640954738393302,-0.9,1.0,465.0,752.0,1.0,2153.0,1,1.0,0.0
162,162,0.1759331573649866,0.2,0.0,324.0,824.0,1.0,3852.0,0,1.0,0.0
163,163,0.013498116867482035,0.0,1.0,443.0,665.0,1.0,3892.0,1,0.0,1.0
164,164,0.6340606035948121,0.6,0.0,352.0,982.0,1.0,-1294.0,0,1.0,0.0
165,165,-0.18187459631154135,-0.2,0.0,270.0,607.0,0.0,833.0,1,0.0,0.0
166,166,0.06024682400020742,0.1,1.0,271.0,686.0,1.0,4043.0,1,0.0,1.0
167,167,-0.6813775095205548,-0.7,1.0,281.0,972.0,1.0,-1163.0,1,1.0,0.0
168,168,0.17182558811176996,0.2,0.0,411.0,938.0,1.0,3651.0,0,1.0,0.0
169,169,0.41975502021486155,0.4,0.0,426.0,528.0,0.0,-934.0,1,1.0,1.0
170,170,-0.7123191482916147,-0.7,1.0,323.0,713.0,0.0,-986.0,0,1.0,1.0
171,171,0.49188972910609674,0.5,0.0,407.0,673.0,1.0,2730.0,0,1.0,0.0
172,172,-0.3076724406986212,-0.3,0.0,389.0,581.0,0.0,560.0,1,0.0,0.0
173,173,0.25206521064678433,0.3,1.0,445.0,567.0,1.0,-2.0,1,0.0,1.0
174,174,0.6182912648794986,0.6,1.0,464.0,609.0,1.0,957.0,1,0.0,1.0
175,175,0.37463902124715076,0.4,0.0,471.0,801.0,0.0,2188.0,1,1.0,1.0
176,176,0.2285599171354814,0.2,0.0,486.0,752.0,0.0,3762.0,1,1.0,1.0
177,177,0.2984461314483656,0.3,1.0,259.0,796.0,0.0,-1035.0,0,0.0,0.0
178,178,-0.3408294076335695,-0.3,1.0,417.0,779.0,1.0,2194.0,1,1.0,0.0
179,179,0.03538585604649125,0.0,0.0,323.0,743.0,1.0,3644.0,0,1.0,0.0
180,180,0.5539196797950768,0.6,0.0,455.0,998.0,0.0,-1333.0,1,1.0,1.0
181,181,-0.12067001603760397,-0.1,0.0,486.0,848.0,0.0,-1244.0,1,0.0,0.0
182,182,0.45966061389929835,0.5,1.0,263.0,997.0,1.0,670.0,1,0.0,1.0
183,183,-0.5464417178435893,-0.5,0.0,310.0,935.0,0.0,-1175.0,1,0.0,0.0
184,184,-0.6937057129305026,-0.7,1.0,474.0,706.0,1.0,-30.0,1,1.0,0.0
185,185,-0.32444751564327834,-0.3,0.0,301.0,651.0,0.0,4048.0,1,0.0,0.0
186,186,0.3845460711989289,0.4,0.0,462.0,872.0,0.0,3666.0,1,1.0,1.0
187,187,0.37881464289600586,0.4,1.0,306.0,630.0,1.0,304.0,1,0.0,1.0
188,188,-0.09220983611340372,-0.1,1.0,454.0,842.0,1.0,3704.0,1,1.0,0.0
189,189,-0.13139633808039275,-0.1,1.0,425.0,831.0,0.0,3744.0,0,1.0,1.0
190,190,0.5589214379035609,0.6,0.0,462.0,739.0,0.0,2669.0,1,1.0,1.0
191,191,0.02378567011146826,0.0,1.0,495.0,630.0,0.0,-1105.0,0,0.0,0.0
192,192,-0.649219589568249,-0.6,1.0,481.0,694.0,0.0,-1155.0,0,1.0,1.0
193,193,0.5040203893999536,0.5,1.0,305.0,915.0,1.0,-1170.0,1,0.0,1.0
194,194,0.10110864664268415,0.1,0.0,499.0,575.0,0.0,346.0,1,1.0,1.0
195,195,-0.5731874613185123,-0.6,0.0,406.0,592.0,0.0,962.0,1,0.0,0.0
196,196,-0.4120239936985359,-0.4,1.0,493.0,556.0,1.0,3951.0,1,1.0,0.0
197,197,-0.8748951098768363,-0.9,1.0,432.0,763.0,1.0,3805.0,1,1.0,0.0
198,198,0.34858867069181054,0.3,0.0,363.0,991.0,1.0,3646.0,0,1.0,0.0
199,199,-0.6939302271376774,-0.7,1.0,366.0,874.0,1.0,-1170.0,1,1.0,0.0
200,200,-0.6343843061299621,-0.6,0.0,365.0,534.0,0.0,391.0,1,0.0,0.0
201,201,0.11145529010585042,0.1,1.0,250.0,512.0,0.0,4238.0,0,0.0,0.0
202,202,-0.899819609974666,-0.9,0.0,298.0,512.0,0.0,1400.0,1,0.0,0.0
203,203,0.5706715816680749,0.6,1.0,294.0,876.0,0.0,-1150.0,0,0.0,0.0
204,204,-0.44023670901796413,-0.4,1.0,364.0,885.0,0.0,-1229.0,0,1.0,1.0
205,205,-0.3059840640632343,-0.3,0.0,434.0,963.0,0.0,-1387.0,1,0.0,0.0
206,206,0.34011265693752046,0.3,0.0,254.0,897.0,0.0,2289.0,1,1.0,1.0
207,207,0.8530893591268848,0.9,0.0,353.0,713.0,0.0,154.0,1,1.0,1.0
208,208,-0.79779243843401,-0.8,1.0,482.0,708.0,1.0,320.0,1,1.0,0.0
209,209,-0.6616596239071435,-0.7,0.0,440.0,662.0,0.0,-1052.0,1,0.0,0.0
210,210,-0.6207755225910934,-0.6,1.0,430.0,576.0,1.0,1524.0,1,1.0,0.0
211,211,-0.5281900860070046,-0.5,1.0,459.0,503.0,1.0,4038.0,1,1.0,0.0
212,212,-0.7209401477855051,-0.7,1.0,458.0,705.0,1.0,3837.0,1,1.0,0.0
213,213,-0.749246945101187,-0.7,0.0,278.0,839.0,0.0,833.0,1,0.0,0.0
214,214,0.05865365909007303,0.1,1.0,363.0,940.0,1.0,3697.0,1,0.0,1.0
215,215,-0.23018636072882936,-0.2,1.0,315.0,866.0,1.0,3819.0,1,1.0,0.0
216,216,-0.5398282718991212,-0.5,1.0,459.0,528.0,1.0,553.0,1,1.0,0.0
217,217,0.4894014149817162,0.5,0.0,311.0,564.0,0.0,-815.0,1,1.0,1.0
218,218,-0.8378959270377839,-0.8,0.0,433.0,630.0,0.0,1417.0,1,0.0,0.0
219,219,-0.03696351055955194,-0.0,0.0,351.0,972.0,0.0,-1273.0,1,0.0,0.0
220,220,-0.015400791720398987,-0.0,0.0,429.0,625.0,0.0,-994.0,1,0.0,0.0
221,221,0.8280229975850074,0.8,1.0,298.0,536.0,1.0,416.0,1,0.0,1.0
222,222,-0.7740978089043616,-0.8,0.0,389.0,621.0,0.0,1110.0,1,0.0,0.0
223,223,0.5358992507323065,0.5,1.0,341.0,573.0,0.0,-874.0,0,0.0,0.0
224,224,0.7771433519761101,0.8,0.0,357.0,695.0,1.0,78.0,0,1.0,0.0
225,225,-0.8192121610021523,-0.8,0.0,288.0,503.0,0.0,579.0,1,0.0,0.0
226,226,0.7451413913221788,0.7,0.0,273.0,743.0,0.0,1614.0,1,1.0,1.0
227,227,-0.615588305399565,-0.6,0.0,276.0,618.0,0.0,3996.0,1,0.0,0.0
228,228,0.1964225658491271,0.2,0.0,419.0,848.0,1.0,3733.0,0,1.0,0.0
229,229,-0.023582454396161467,-0.0,1.0,251.0,897.0,1.0,3852.0,1,1.0,0.0
230,230,0.1625590784722889,0.2,0.0,301.0,626.0,1.0,4073.0,0,1.0,0.0
231,231,-0.7694577523110004,-0.8,0.0,329.0,513.0,1.0,-772.0,0,0.0,1.0
232,232,-0.1570738524695514,-0.2,0.0,366.0,942.0,0.0,-108.0,1,0.0,0.0
233,233,-0.4945347511788809,-0.5,0.0,355.0,688.0,0.0,627.0,1,0.0,0.0
234,234,0.3655243282932398,0.4,0.0,438.0,571.0,0.0,3101.0,1,1.0,1.0
235,235,-0.876611129548683,-0.9,1.0,356.0,887.0,0.0,-1223.0,0,1.0,1.0
236,236,-0.7865500173964385,-0.8,0.0,252.0,695.0,0.0,1103.0,1,0.0,0.0
237,237,0.6723702859268667,0.7,0.0,469.0,925.0,0.0,126.0,1,1.0,1.0
238,238,0.10796839460061858,0.1,1.0,416.0,748.0,0.0,3836.0,0,0.0,0.0
239,239,0.6659782316814965,0.7,0.0,497.0,747.0,0.0,3006.0,1,1.0,1.0
240,240,0.04055619449633796,0.0,0.0,452.0,649.0,0.0,-1051.0,1,1.0,1.0
241,241,0.439223923454895,0.4,1.0,334.0,714.0,1.0,3952.0,1,0.0,1.0
242,242,0.36575019354175275,0.4,0.0,476.0,680.0,0.0,3454.0,1,1.0,1.0
243,243,0.15953868396893156,0.2,1.0,330.0,721.0,0.0,3949.0,0,0.0,0.0
244,244,-0.1834837105014553,-0.2,1.0,483.0,528.0,1.0,3989.0,1,1.0,0.0
245,245,-0.21640847297148647,-0.2,1.0,444.0,979.0,1.0,3577.0,1,1.0,0.0
246,246,-0.1291136152079041,-0.1,1.0,488.0,820.0,0.0,-1238.0,0,1.0,1.0
247,247,0.047593042649281325,0.0,1.0,313.0,517.0,0.0,-800.0,0,0.0,0.0
248,248,-0.44678056068849015,-0.4,0.0,484.0,504.0,0.0,162.0,1,0.0,0.0
249,249,-0.5862580873651262,-0.6,1.0,392.0,835.0,1.0,3773.0,1,1.0,0.0
250,250,0.27660005975042157,0.3,0.0,461.0,642.0,1.0,3897.0,0,1.0,0.0
251,251,0.7068629824860176,0.7,0.0,362.0,844.0,0.0,2374.0,1,1.0,1.0
252,252,-0.5109933275259423,-0.5,1.0,259.0,823.0,0.0,-1072.0,0,1.0,1.0
253,253,0.32373980596940866,0.3,1.0,358.0,545.0,0.0,4097.0,0,0.0,0.0
254,254,-0.06683297243490838,-0.1,1.0,300.0,827.0,1.0,3873.0,1,1.0,0.0
255,255,0.7296047103119837,0.7,0.0,490.0,648.0,1.0,-1128.0,0,1.0,0.0
256,256,-0.8193401463169739,-0.8,0.0,388.0,933.0,1.0,-1281.0,0,0.0,1.0
257,257,-0.7500675326530915,-0.8,0.0,386.0,779.0,0.0,295.0,1,0.0,0.0
258,258,-0.870605973169791,-0.9,1.0,393.0,624.0,1.0,3983.0,1,1.0,0.0
259,259,-0.5266161220058845,-0.5,1.0,444.0,992.0,1.0,3564.0,1,1.0,0.0
260,260,-0.2060707734908952,-0.2,1.0,457.0,586.0,0.0,-983.0,0,1.0,1.0
261,261,0.85569700872982,0.9,1.0,254.0,559.0,0.0,-773.0,0,0.0,0.0
262,262,0.4124531615396715,0.4,0.0,446.0,538.0,1.0,546.0,0,1.0,0.0
263,263,-0.17251868718470587,-0.2,1.0,307.0,953.0,1.0,3740.0,1,1.0,0.0
264,264,-0.380020058957788,-0.4,0.0,377.0,943.0,0.0,-1270.0,1,0.0,0.0
265,265,-0.13589669703308027,-0.1,1.0,375.0,683.0,1.0,3942.0,1,1.0,0.0
266,266,0.1277662636213962,0.1,1.0,423.0,749.0,0.0,3828.0,0,0.0,0.0
267,267,0.8351792817757361,0.8,1.0,298.0,575.0,1.0,337.0,1,0.0,1.0
268,268,-0.7419287392839284,-0.7,0.0,408.0,835.0,0.0,1717.0,1,0.0,0.0
269,269,-0.5274246868644348,-0.5,0.0,363.0,651.0,0.0,806.0,1,0.0,0.0
270,270,0.4979584747686844,0.5,0.0,399.0,931.0,0.0,3020.0,1,1.0,1.0
271,271,-0.7805478073279367,-0.8,0.0,396.0,997.0,0.0,507.0,1,0.0,0.0
272,272,-0.7658718669271478,-0.8,1.0,328.0,769.0,1.0,1633.0,1,1.0,0.0
273,273,0.6512258908101486,0.7,1.0,434.0,895.0,1.0,961.0,1,0.0,1.0
274,274,0.2620669354230455,0.3,0.0,473.0,879.0,1.0,3648.0,0,1.0,0.0
275,275,-0.8722761359933137,-0.9,1.0,271.0,600.0,1.0,309.0,1,1.0,0.0
276,276,-0.7597734000396579,-0.8,1.0,482.0,767.0,1.0,3751.0,1,1.0,0.0
277,277,-0.6307679841428968,-0.6,1.0,405.0,858.0,1.0,-143.0,1,1.0,0.0
278,278,-0.25305917419466284,-0.3,1.0,438.0,900.0,1.0,3662.0,1,1.0,0.0
279,279,0.17327219705005914,0.2,0.0,448.0,685.0,1.0,3867.0,0,1.0,0.0
280,280,0.3561323072066932,0.4,0.0,338.0,752.0,0.0,3910.0,1,1.0,1.0
281,281,-0.3796494682104463,-0.4,0.0,420.0,956.0,0.0,3624.0,1,0.0,0.0
282,282,0.2637740235079581,0.3,1.0,416.0,996.0,0.0,-1382.0,0,0.0,0.0
283,283,-0.6940589942957879,-0.7,1.0,430.0,759.0,1.0,3811.0,1,1.0,0.0
284,284,-0.5857820481214795,-0.6,0.0,308.0,507.0,0.0,3655.0,1,0.0,0.0
285,285,-0.6927821686985636,-0.7,1.0,310.0,909.0,1.0,3781.0,1,1.0,0.0
286,286,0.4382869655417564,0.4,0.0,363.0,885.0,0.0,-1218.0,1,1.0,1.0
287,287,0.7561042669762928,0.8,1.0,421.0,976.0,1.0,-1347.0,1,0.0,1.0
288,288,0.14762134481389888,0.1,0.0,313.0,977.0,1.0,2130.0,0,1.0,0.0
289,289,-0.7926569802710002,-0.8,1.0,434.0,724.0,1.0,1512.0,1,1.0,0.0
290,290,-0.23200735016954566,-0.2,0.0,257.0,533.0,0.0,-680.0,1,0.0,0.0
291,291,-0.6394017208859468,-0.6,0.0,272.0,821.0,0.0,757.0,1,0.0,0.0
292,292,0.307136528421703,0.3,0.0,449.0,800.0,0.0,111.0,1,1.0,1.0
293,293,0.36558004474232153,0.4,1.0,311.0,771.0,1.0,2658.0,1,0.0,1.0
294,294,-0.52160974743353,-0.5,1.0,381.0,791.0,0.0,-1122.0,0,1.0,1.0
295,295,-0.4553805349393291,-0.5,1.0,403.0,864.0,1.0,2153.0,1,1.0,0.0
296,296,-0.38526458210543124,-0.4,1.0,336.0,826.0,1.0,1538.0,1,1.0,0.0
297,297,0.36536566651631064,0.4,1.0,341.0,519.0,1.0,340.0,1,0.0,1.0
298,298,-0.2129182687220914,-0.2,1.0,350.0,678.0,1.0,3972.0,1,1.0,0.0
299,299,0.5017641885383594,0.5,0.0,442.0,926.0,0.0,3002.0,1,1.0,1.0
300,300,0.668131538095743,0.7,0.0,312.0,907.0,0.0,2251.0,1,1.0,1.0
301,301,-0.06347963965632852,-0.1,1.0,367.0,889.0,0.0,-1236.0,0,1.0,1.0
302,302,-0.8510909505841038,-0.9,1.0,390.0,821.0,1.0,1739.0,1,1.0,0.0
303,303,0.8953648193020577,0.9,0.0,439.0,631.0,0.0,1340.0,1,1.0,1.0
304,304,-0.5134169324121618,-0.5,0.0,332.0,745.0,0.0,-27.0,1,0.0,0.0
305,305,-0.4118211140235075,-0.4,1.0,423.0,545.0,1.0,4032.0,1,1.0,0.0
306,306,-0.16773028728372752,-0.2,0.0,444.0,737.0,0.0,3819.0,1,0.0,0.0
307,307,0.6365354869369911,0.6,0.0,403.0,971.0,0.0,2176.0,1,1.0,1.0
308,308,0.8549394602123409,0.9,0.0,280.0,623.0,1.0,-843.0,0,1.0,0.0
309,309,-0.7448210072023423,-0.7,0.0,396.0,813.0,0.0,541.0,1,0.0,0.0
310,310,0.10994038700112052,0.1,0.0,362.0,629.0,1.0,2229.0,0,1.0,0.0
311,311,-0.0008445972134709656,-0.0,0.0,478.0,786.0,1.0,296.0,0,0.0,1.0
312,312,-0.31090105546489133,-0.3,1.0,284.0,694.0,1.0,882.0,1,1.0,0.0
313,313,0.7200325232834727,0.7,1.0,286.0,558.0,1.0,1056.0,1,0.0,1.0
314,314,0.528269588235918,0.5,1.0,316.0,928.0,1.0,1026.0,1,0.0,1.0
315,315,-0.7361921039181665,-0.7,0.0,376.0,752.0,0.0,2442.0,1,0.0,0.0
316,316,-0.6538079592957103,-0.7,1.0,322.0,910.0,1.0,3768.0,1,1.0,0.0
317,317,0.401629503455493,0.4,0.0,371.0,682.0,0.0,-993.0,1,1.0,1.0
318,318,-0.7944034028703444,-0.8,0.0,376.0,687.0,0.0,2737.0,1,0.0,0.0
319,319,-0.6699671112874549,-0.7,1.0,366.0,560.0,1.0,4074.0,1,1.0,0.0
320,320,0.8066971383285048,0.8,1.0,456.0,936.0,1.0,-12.0,1,0.0,1.0
321,321,-0.443623632943036,-0.4,1.0,291.0,638.0,1.0,4071.0,1,1.0,0.0
322,322,-0.39801879918714,-0.4,0.0,489.0,555.0,0.0,3456.0,1,0.0,0.0
323,323,0.72988894129683,0.7,0.0,467.0,873.0,0.0,140.0,1,1.0,1.0
324,324,-0.5848520432393041,-0.6,0.0,302.0,538.0,0.0,2800.0,1,0.0,0.0
325,325,0.6115731440095126,0.6,0.0,341.0,775.0,0.0,2274.0,1,1.0,1.0
326,326,0.5463411497267953,0.5,0.0,300.0,797.0,0.0,-1017.0,1,1.0,1.0
327,327,-0.30161434306554424,-0.3,1.0,297.0,667.0,1.0,-914.0,1,1.0,0.0
328,328,-0.507214550922902,-0.5,0.0,375.0,961.0,0.0,1364.0,1,0.0,0.0
329,329,0.29599962874581187,0.3,0.0,360.0,789.0,1.0,11.0,0,1.0,0.0
330,330,0.6487667812073975,0.6,1.0,405.0,956.0,1.0,-231.0,1,0.0,1.0
331,331,-0.06704589456392329,-0.1,0.0,377.0,653.0,0.0,3970.0,1,0.0,0.0
332,332,-0.5990152553618511,-0.6,0.0,455.0,815.0,0.0,340.0,1,0.0,0.0
333,333,-0.8373876225153858,-0.8,0.0,393.0,577.0,1.0,-930.0,0,0.0,1.0
334,334,-0.85749382492096,-0.9,0.0,303.0,972.0,0.0,-1195.0,1,0.0,0.0
335,335,0.10854070875639643,0.1,0.0,468.0,779.0,1.0,3753.0,0,1.0,0.0
336,336,-0.6688004902930509,-0.7,0.0,304.0,949.0,0.0,2937.0,1,0.0,0.0
337,337,-0.6760708728720163,-0.7,1.0,426.0,842.0,0.0,-1258.0,0,1.0,1.0
338,338,-0.8507004710026183,-0.9,0.0,343.0,708.0,0.0,-971.0,1,0.0,0.0
339,339,0.11022432896670187,0.1,0.0,436.0,629.0,1.0,-1045.0,0,1.0,0.0
340,340,-0.43163210441935057,-0.4,1.0,489.0,760.0,1.0,3701.0,1,1.0,0.0
341,341,0.5564832873320488,0.6,1.0,289.0,590.0,1.0,4121.0,1,0.0,1.0
342,342,0.6053794909573859,0.6,1.0,492.0,608.0,1.0,2530.0,1,0.0,1.0
343,343,0.7362898861278359,0.7,1.0,433.0,735.0,1.0,1482.0,1,0.0,1.0
344,344,-0.2633229750244652,-0.3,0.0,349.0,823.0,0.0,2338.0,1,0.0,0.0
345,345,0.45438114051200584,0.5,0.0,481.0,741.0,1.0,-1162.0,0,1.0,0.0
346,346,-0.18995343166602952,-0.2,1.0,326.0,534.0,0.0,-740.0,0,1.0,1.0
347,347,-0.7021477089780921,-0.7,0.0,272.0,684.0,0.0,-906.0,1,0.0,0.0
348,348,0.42214447162580326,0.4,0.0,476.0,606.0,0.0,-1052.0,1,1.0,1.0
349,349,-0.7484636866453742,-0.7,0.0,266.0,869.0,0.0,2375.0,1,0.0,0.0
350,350,0.46626224920481085,0.5,1.0,438.0,594.0,1.0,3968.0,1,0.0,1.0
351,351,-0.09490575114318267,-0.1,1.0,369.0,906.0,0.0,-1245.0,0,1.0,1.0
352,352,-0.5983828191356211,-0.6,0.0,492.0,691.0,0.0,-1163.0,1,0.0,0.0
353,353,0.0710239845741345,0.1,0.0,405.0,627.0,1.0,998.0,0,1.0,0.0
354,354,0.0736271254391988,0.1,1.0,307.0,725.0,1.0,118.0,1,0.0,1.0
355,355,-0.6768889787731851,-0.7,1.0,377.0,659.0,1.0,3964.0,1,1.0,0.0
356,356,-0.7934719895393842,-0.8,0.0,400.0,961.0,1.0,-591.0,0,0.0,1.0
357,357,0.25099741976987466,0.3,1.0,370.0,924.0,0.0,-1254.0,0,0.0,0.0
358,358,0.08276869351390992,0.1,0.0,420.0,596.0,1.0,3984.0,0,1.0,0.0
359,359,-0.03437834052892186,-0.0,0.0,402.0,809.0,1.0,-1191.0,0,0.0,1.0
360,360,0.8833906909094417,0.9,1.0,437.0,965.0,1.0,308.0,1,0.0,1.0
361,361,-0.7988627046231723,-0.8,1.0,444.0,773.0,1.0,543.0,1,1.0,0.0
362,362,0.779803350916903,0.8,1.0,450.0,969.0,1.0,1291.0,1,0.0,1.0
363,363,0.13367462480347847,0.1,1.0,305.0,849.0,1.0,3846.0,1,0.0,1.0
364,364,0.4880570921583206,0.5,1.0,261.0,829.0,1.0,3910.0,1,0.0,1.0
365,365,0.6763912492282688,0.7,0.0,449.0,749.0,0.0,-1138.0,1,1.0,1.0
366,366,0.7147419283694002,0.7,1.0,295.0,710.0,0.0,-955.0,0,0.0,0.0
367,367,-0.7963108397658135,-0.8,1.0,438.0,541.0,1.0,2831.0,1,1.0,0.0
368,368,0.37361217575904615,0.4,1.0,253.0,872.0,1.0,3875.0,1,0.0,1.0
369,369,0.1539531526045027,0.2,0.0,304.0,723.0,1.0,3973.0,0,1.0,0.0
370,370,-0.022003674355742908,-0.0,1.0,497.0,687.0,1.0,3816.0,1,1.0,0.0
371,371,-0.11994340644922863,-0.1,0.0,343.0,863.0,1.0,3794.0,0,0.0,1.0
372,372,0.6814944660869414,0.7,1.0,290.0,646.0,1.0,4064.0,1,0.0,1.0
373,373,-0.3043237620917739,-0.3,1.0,406.0,638.0,1.0,3956.0,1,1.0,0.0
374,374,-0.2027093177757724,-0.2,0.0,355.0,826.0,0.0,3819.0,1,0.0,0.0
375,375,0.6575997553731249,0.7,0.0,259.0,974.0,0.0,617.0,1,1.0,1.0
376,376,0.6736497771452198,0.7,0.0,393.0,933.0,1.0,3674.0,0,1.0,0.0
377,377,-0.41418184295618304,-0.4,1.0,472.0,870.0,1.0,3658.0,1,1.0,0.0
378,378,0.4008541567879923,0.4,1.0,252.0,713.0,1.0,-915.0,1,0.0,1.0
379,379,0.869810647399497,0.9,1.0,477.0,974.0,1.0,629.0,1,0.0,1.0
380,380,0.2525276919104985,0.3,0.0,444.0,806.0,1.0,3750.0,0,1.0,0.0
381,381,-0.28077459620630585,-0.3,1.0,327.0,717.0,1.0,3556.0,1,1.0,0.0
382,382,-0.23675884888179932,-0.2,0.0,271.0,638.0,0.0,4091.0,1,0.0,0.0
383,383,0.5002979043240564,0.5,1.0,349.0,694.0,1.0,547.0,1,0.0,1.0
384,384,0.29325365811022175,0.3,0.0,397.0,568.0,0.0,4035.0,1,1.0,1.0
385,385,0.8986851303651168,0.9,1.0,344.0,751.0,1.0,1005.0,1,0.0,1.0
386,386,-0.6235970518669423,-0.6,1.0,362.0,918.0,1.0,1830.0,1,1.0,0.0
387,387,-0.8622700543827245,-0.9,1.0,278.0,657.0,1.0,205.0,1,1.0,0.0
388,388,-0.7940907559532798,-0.8,1.0,370.0,991.0,1.0,489.0,1,1.0,0.0
389,389,0.5188871993405394,0.5,1.0,300.0,942.0,1.0,1878.0,1,0.0,1.0
390,390,0.029490763102478,0.0,0.0,361.0,605.0,1.0,4034.0,0,1.0,0.0
391,391,0.851907666023355,0.9,1.0,317.0,586.0,1.0,1047.0,1,0.0,1.0
392,392,-0.17490257836622625,-0.2,1.0,316.0,888.0,1.0,-1194.0,1,1.0,0.0
393,393,0.32381469336042656,0.3,1.0,435.0,859.0,0.0,-1264.0,0,0.0,0.0
394,394,-0.4394678348224811,-0.4,1.0,354.0,802.0,1.0,-1066.0,1,1.0,0.0
395,395,0.2874470570871931,0.3,1.0,378.0,990.0,0.0,-1308.0,0,0.0,0.0
396,396,-0.8586754198290176,-0.9,0.0,265.0,626.0,0.0,1569.0,1,0.0,0.0
397,397,-0.1593322796012242,-0.2,0.0,362.0,793.0,0.0,-1125.0,1,0.0,0.0
398,398,0.8376784108099521,0.8,1.0,398.0,891.0,1.0,351.0,1,0.0,1.0
399,399,0.12699277709819434,0.1,0.0,449.0,548.0,0.0,4003.0,1,1.0,1.0
400,400,-0.24382820841740316,-0.2,0.0,254.0,542.0,1.0,4204.0,0,0.0,1.0
401,401,-0.16496447493283362,-0.2,1.0,423.0,667.0,1.0,3910.0,1,1.0,0.0
402,402,0.5216659238899365,0.5,0.0,286.0,732.0,0.0,1562.0,1,1.0,1.0
403,403,0.8533236565051464,0.9,1.0,451.0,716.0,1.0,1303.0,1,0.0,1.0
404,404,0.7045124710913716,0.7,1.0,351.0,943.0,0.0,-104.0,0,0.0,0.0
405,405,0.4321024557716674,0.4,0.0,321.0,520.0,0.0,1969.0,1,1.0,1.0
406,406,0.4880717216251703,0.5,0.0,493.0,989.0,0.0,-1452.0,1,1.0,1.0
407,407,-0.22491551476682337,-0.2,1.0,276.0,620.0,0.0,-856.0,0,1.0,1.0
408,408,0.2115593093288367,0.2,0.0,368.0,513.0,1.0,4119.0,0,1.0,0.0
409,409,-0.7760104021644214,-0.8,0.0,435.0,552.0,0.0,-977.0,1,0.0,0.0
410,410,0.6282140117383198,0.6,0.0,291.0,894.0,0.0,-1105.0,1,1.0,1.0
411,411,-0.36619572463809646,-0.4,1.0,343.0,747.0,0.0,-1040.0,0,1.0,1.0
412,412,0.8281920224196785,0.8,1.0,487.0,946.0,1.0,-1383.0,1,0.0,1.0
413,413,-0.645553803660508,-0.6,1.0,455.0,805.0,1.0,3740.0,1,1.0,0.0
414,414,0.10402267101483076,0.1,0.0,253.0,736.0,0.0,-969.0,1,1.0,1.0
415,415,-0.890905044426911,-0.9,0.0,398.0,668.0,0.0,-996.0,1,0.0,0.0
416,416,0.8018854733311495,0.8,0.0,295.0,717.0,1.0,3988.0,0,1.0,0.0
417,417,0.21644193794682864,0.2,0.0,343.0,943.0,0.0,3714.0,1,1.0,1.0
418,418,-0.0005979277719909692,-0.0,1.0,358.0,817.0,1.0,3825.0,1,1.0,0.0
419,419,-0.39875922352448956,-0.4,1.0,459.0,557.0,1.0,194.0,1,1.0,0.0
420,420,0.8437917297971044,0.8,0.0,279.0,848.0,0.0,2723.0,1,1.0,1.0
421,421,0.6032225640450456,0.6,1.0,319.0,942.0,1.0,1309.0,1,0.0,1.0
422,422,0.20546547073902033,0.2,0.0,442.0,607.0,0.0,-959.0,1,1.0,1.0
423,423,-0.5478865341179371,-0.5,0.0,483.0,523.0,0.0,334.0,1,0.0,0.0
424,424,0.03688099636096953,0.0,1.0,253.0,864.0,1.0,3883.0,1,0.0,1.0
425,425,-0.6496655322471871,-0.6,0.0,412.0,917.0,0.0,1081.0,1,0.0,0.0
426,426,0.49104858672218,0.5,0.0,316.0,711.0,0.0,483.0,1,1.0,1.0
427,427,-0.2735501702576473,-0.3,0.0,348.0,619.0,0.0,2553.0,1,0.0,0.0
428,428,0.04924725304749866,0.0,0.0,309.0,755.0,1.0,3936.0,0,1.0,0.0
429,429,0.36793633171367157,0.4,1.0,464.0,825.0,1.0,3711.0,1,0.0,1.0
430,430,0.2886037872883912,0.3,0.0,311.0,756.0,1.0,3933.0,0,1.0,0.0
431,431,0.32954053288477236,0.3,1.0,389.0,648.0,0.0,-997.0,0,0.0,0.0
432,432,0.0754499559902061,0.1,0.0,442.0,746.0,0.0,-1128.0,1,1.0,1.0
433,433,-0.6455236930572421,-0.6,0.0,494.0,705.0,0.0,3801.0,1,0.0,0.0
434,434,-0.5445741524100535,-0.5,1.0,323.0,702.0,1.0,785.0,1,1.0,0.0
435,435,0.08250027214406319,0.1,0.0,434.0,811.0,0.0,3755.0,1,1.0,1.0
436,436,-0.8235581249310263,-0.8,1.0,356.0,518.0,1.0,4126.0,1,1.0,0.0
437,437,-0.8368440319559546,-0.8,0.0,338.0,847.0,0.0,-1145.0,1,0.0,0.0
438,438,-0.13606831826918797,-0.1,0.0,474.0,659.0,0.0,2517.0,1,0.0,0.0
439,439,-0.21629867102328293,-0.2,1.0,289.0,773.0,1.0,3938.0,1,1.0,0.0
440,440,-0.12528924790577034,-0.1,1.0,279.0,914.0,1.0,1397.0,1,1.0,0.0
441,441,-0.17605398427252417,-0.2,1.0,380.0,695.0,1.0,1155.0,1,1.0,0.0
442,442,-0.7379710097827923,-0.7,0.0,481.0,583.0,0.0,586.0,1,0.0,0.0
443,443,-0.2940188086525253,-0.3,1.0,409.0,927.0,1.0,154.0,1,1.0,0.0
444,444,-0.33913978318309734,-0.3,0.0,287.0,554.0,1.0,4159.0,0,0.0,1.0
445,445,0.1337675815206928,0.1,0.0,284.0,632.0,1.0,4084.0,0,1.0,0.0
446,446,-0.033142734046980094,-0.0,1.0,334.0,833.0,1.0,833.0,1,1.0,0.0
447,447,-0.06756845770028352,-0.1,0.0,421.0,863.0,1.0,3716.0,0,0.0,1.0
448,448,0.5861533426117308,0.6,1.0,333.0,682.0,0.0,-965.0,0,0.0,0.0
449,449,0.5944457791091918,0.6,0.0,340.0,980.0,1.0,3680.0,0,1.0,0.0
450,450,-0.3277108602195794,-0.3,1.0,309.0,608.0,1.0,2933.0,1,1.0,0.0
451,451,0.24011609920356924,0.2,1.0,438.0,839.0,1.0,-1227.0,1,0.0,1.0
452,452,-0.33171592497794056,-0.3,1.0,415.0,893.0,1.0,3102.0,1,1.0,0.0
453,453,0.823719363124427,0.8,0.0,313.0,530.0,0.0,307.0,1,1.0,1.0
454,454,-0.8768955153201445,-0.9,0.0,440.0,517.0,0.0,163.0,1,0.0,0.0
455,455,-0.7578079208378096,-0.8,1.0,273.0,691.0,1.0,716.0,1,1.0,0.0
456,456,0.5207765049755068,0.5,0.0,455.0,556.0,0.0,3989.0,1,1.0,1.0
457,457,0.3426586261545502,0.3,1.0,333.0,850.0,0.0,-1123.0,0,0.0,0.0
458,458,0.0769223231617171,0.1,1.0,381.0,533.0,0.0,-824.0,0,0.0,0.0
459,459,-0.3084047065576784,-0.3,0.0,286.0,509.0,0.0,545.0,1,0.0,0.0
460,460,0.05449896774769525,0.1,1.0,431.0,531.0,1.0,-932.0,1,0.0,1.0
461,461,0.7911250733753269,0.8,1.0,460.0,674.0,1.0,196.0,1,0.0,1.0
462,462,0.2971604645964313,0.3,1.0,293.0,789.0,1.0,2078.0,1,0.0,1.0
463,463,-0.6970446552348125,-0.7,0.0,424.0,738.0,0.0,-1072.0,1,0.0,0.0
464,464,0.028824161038460527,0.0,0.0,375.0,633.0,1.0,-978.0,0,1.0,0.0
465,465,0.24396730286338741,0.2,1.0,282.0,951.0,0.0,-103.0,0,0.0,0.0
466,466,0.7175245149388226,0.7,0.0,384.0,526.0,0.0,2890.0,1,1.0,1.0
467,467,0.7508673080762077,0.8,1.0,259.0,703.0,1.0,448.0,1,0.0,1.0
468,468,-0.8207139667205726,-0.8,0.0,334.0,702.0,0.0,3964.0,1,0.0,0.0
469,469,0.1353280918437435,0.1,0.0,361.0,990.0,0.0,-1311.0,1,1.0,1.0
470,470,0.7025996513118015,0.7,1.0,344.0,830.0,1.0,836.0,1,0.0,1.0
471,471,-0.4316610651302224,-0.4,1.0,358.0,792.0,0.0,-1130.0,0,1.0,1.0
472,472,0.2466944025782144,0.2,0.0,400.0,584.0,0.0,4016.0,1,1.0,1.0
473,473,0.38942529939724835,0.4,1.0,253.0,991.0,1.0,886.0,1,0.0,1.0
474,474,0.47221853288211746,0.5,0.0,491.0,849.0,1.0,3660.0,0,1.0,0.0
475,475,0.7032221091470429,0.7,1.0,301.0,569.0,1.0,110.0,1,0.0,1.0
476,476,-0.8429577271548052,-0.8,1.0,320.0,774.0,1.0,1616.0,1,1.0,0.0
477,477,0.10364395472745336,0.1,0.0,282.0,696.0,1.0,4022.0,0,1.0,0.0
478,478,-0.37895933664609405,-0.4,0.0,375.0,645.0,0.0,3980.0,1,0.0,0.0
479,479,0.8081436808582975,0.8,1.0,471.0,508.0,1.0,191.0,1,0.0,1.0
480,480,-0.4176972107525546,-0.4,0.0,422.0,903.0,1.0,-1235.0,0,0.0,1.0
481,481,-0.01822397619804228,-0.0,0.0,354.0,922.0,1.0,3724.0,0,0.0,1.0
482,482,-0.1945979495601815,-0.2,1.0,496.0,730.0,0.0,-1166.0,0,1.0,1.0
483,483,-0.15002999871944744,-0.2,0.0,281.0,673.0,0.0,2236.0,1,0.0,0.0
484,484,-0.6347178162462249,-0.6,1.0,393.0,841.0,1.0,-1224.0,1,1.0,0.0
485,485,-0.30162607845793876,-0.3,0.0,453.0,535.0,1.0,-918.0,0,0.0,1.0
486,486,-0.18662928255739653,-0.2,1.0,346.0,768.0,1.0,2376.0,1,1.0,0.0
487,487,0.877798361300797,0.9,1.0,382.0,949.0,1.0,539.0,1,0.0,1.0
488,488,0.19618902069574518,0.2,0.0,372.0,618.0,1.0,4010.0,0,1.0,0.0
489,489,-0.4378587207939929,-0.4,0.0,291.0,632.0,0.0,-903.0,1,0.0,0.0
490,490,0.42209224666425993,0.4,1.0,255.0,640.0,0.0,-885.0,0,0.0,0.0
491,491,0.6927351236197042,0.7,1.0,395.0,561.0,1.0,2674.0,1,0.0,1.0
492,492,-0.34106255647324224,-0.3,0.0,375.0,837.0,1.0,3788.0,0,0.0,1.0
493,493,-0.27095030208200166,-0.3,0.0,355.0,644.0,0.0,201.0,1,0.0,0.0
494,494,-0.843045676563274,-0.8,1.0,431.0,698.0,1.0,311.0,1,1.0,0.0
495,495,0.35974317334420103,0.4,1.0,337.0,887.0,1.0,2456.0,1,0.0,1.0
496,496,0.05223975167687622,0.1,0.0,480.0,852.0,1.0,308.0,0,1.0,0.0
497,497,-0.7836367486800049,-0.8,1.0,367.0,943.0,1.0,2060.0,1,1.0,0.0
498,498,-0.322242923913333,-0.3,1.0,469.0,669.0,1.0,1752.0,1,1.0,0.0
499,499,-0.5728757698254798,-0.6,1.0,477.0,512.0,1.0,4011.0,1,1.0,0.0
500,500,-0.5866270125765913,-0.6,0.0,422.0,848.0,0.0,3730.0,1,0.0,0.0
501,501,0.027415787795946667,0.0,0.0,483.0,639.0,0.0,-1082.0,1,1.0,1.0
502,502,-0.7304864011683619,-0.7,0.0,488.0,811.0,0.0,441.0,1,0.0,0.0
503,503,0.5982889038629001,0.6,1.0,315.0,961.0,0.0,-1256.0,0,0.0,0.0
504,504,-0.14895226446476884,-0.1,0.0,475.0,631.0,0.0,-1076.0,1,0.0,0.0
505,505,-0.6790358260832094,-0.7,1.0,445.0,520.0,1.0,815.0,1,1.0,0.0
506,506,0.6476595769026073,0.6,0.0,468.0,800.0,0.0,1392.0,1,1.0,1.0
507,507,0.43571027450568434,0.4,1.0,307.0,859.0,0.0,-1126.0,0,0.0,0.0
508,508,0.7124205231727919,0.7,0.0,468.0,819.0,0.0,-1277.0,1,1.0,1.0
509,509,-0.676847176324678,-0.7,1.0,376.0,945.0,1.0,1189.0,1,1.0,0.0
510,510,0.7997507980468538,0.8,1.0,288.0,777.0,1.0,265.0,1,0.0,1.0
511,511,0.10532561461761503,0.1,0.0,398.0,669.0,1.0,-1007.0,0,1.0,0.0
512,512,0.8822830628279602,0.9,0.0,443.0,831.0,0.0,516.0,1,1.0,1.0
513,513,-0.015783638775262343,-0.0,1.0,482.0,744.0,1.0,3774.0,1,1.0,0.0
514,514,0.07228944046378583,0.1,0.0,280.0,792.0,1.0,-1052.0,0,1.0,0.0
515,515,0.3802391110211524,0.4,0.0,388.0,768.0,1.0,3844.0,0,1.0,0.0
516,516,0.7239638921367141,0.7,1.0,487.0,905.0,1.0,3088.0,1,0.0,1.0
517,517,0.22223867655926377,0.2,0.0,351.0,579.0,1.0,400.0,0,1.0,0.0
518,518,0.46142880160224153,0.5,1.0,410.0,722.0,1.0,1868.0,1,0.0,1.0
519,519,-0.3583592453504205,-0.4,1.0,409.0,657.0,0.0,-1006.0,0,1.0,1.0
520,520,-0.8809504385331813,-0.9,1.0,305.0,818.0,1.0,-1033.0,1,1.0,0.0
521,521,-0.10642718927160433,-0.1,0.0,434.0,890.0,0.0,-1284.0,1,0.0,0.0
522,522,0.40887517767571346,0.4,0.0,278.0,750.0,0.0,512.0,1,1.0,1.0
523,523,-0.5470723940455576,-0.5,1.0,294.0,537.0,1.0,3639.0,1,1.0,0.0
524,524,0.27171382664159716,0.3,1.0,265.0,957.0,0.0,-1162.0,0,0.0,0.0
525,525,0.07746517603029068,0.1,0.0,331.0,940.0,1.0,-91.0,0,1.0,0.0
526,526,0.48722250380292953,0.5,0.0,495.0,824.0,0.0,3681.0,1,1.0,1.0
527,527,0.5135894393521315,0.5,1.0,334.0,719.0,1.0,3947.0,1,0.0,1.0
528,528,-0.4506443078249034,-0.5,0.0,427.0,946.0,0.0,2957.0,1,0.0,0.0
529,529,-0.7728086695254168,-0.8,1.0,280.0,757.0,0.0,-997.0,0,1.0,1.0
530,530,-0.6819876203926555,-0.7,1.0,272.0,773.0,1.0,965.0,1,1.0,0.0
531,531,0.858062397829415,0.9,0.0,421.0,712.0,0.0,2667.0,1,1.0,1.0
532,532,-0.7387585304268777,-0.7,1.0,263.0,858.0,0.0,-1081.0,0,1.0,1.0
533,533,0.5751457700189407,0.6,0.0,450.0,656.0,0.0,1264.0,1,1.0,1.0
534,534,-0.3038956311539144,-0.3,1.0,323.0,571.0,0.0,-834.0,0,1.0,1.0
535,535,0.8757514468690636,0.9,1.0,395.0,882.0,1.0,143.0,1,0.0,1.0
536,536,0.7882355763986487,0.8,1.0,338.0,780.0,1.0,112.0,1,0.0,1.0
537,537,-0.6653893546135091,-0.7,0.0,488.0,627.0,0.0,-1075.0,1,0.0,0.0
538,538,-0.7264013869459733,-0.7,0.0,497.0,633.0,0.0,410.0,1,0.0,0.0
539,539,-0.5232400341807657,-0.5,1.0,364.0,536.0,1.0,4100.0,1,1.0,0.0
540,540,-0.3909637249538417,-0.4,0.0,251.0,767.0,0.0,3982.0,1,0.0,0.0
541,541,-0.013525992761115546,-0.0,0.0,360.0,560.0,0.0,4080.0,1,0.0,0.0
542,542,0.6168004408078996,0.6,0.0,455.0,836.0,0.0,-1261.0,1,1.0,1.0
543,543,0.4522781517038058,0.5,1.0,420.0,873.0,1.0,67.0,1,0.0,1.0
544,544,0.12707901431434865,0.1,1.0,393.0,559.0,0.0,298.0,0,0.0,0.0
545,545,-0.8089869753555224,-0.8,0.0,486.0,912.0,0.0,3602.0,1,0.0,0.0
546,546,-0.48034189700905855,-0.5,0.0,250.0,939.0,0.0,3811.0,1,0.0,0.0
547,547,-0.09831445922561055,-0.1,1.0,495.0,768.0,1.0,2227.0,1,1.0,0.0
548,548,-0.2277259529319109,-0.2,0.0,331.0,827.0,1.0,542.0,0,0.0,1.0
549,549,0.2547544534648586,0.3,1.0,415.0,730.0,1.0,265.0,1,0.0,1.0
550,550,0.40807752053529545,0.4,0.0,340.0,742.0,1.0,3918.0,0,1.0,0.0
551,551,-0.85283727743148,-0.9,1.0,473.0,917.0,1.0,2010.0,1,1.0,0.0
552,552,0.5213236794787771,0.5,1.0,258.0,536.0,1.0,676.0,1,0.0,1.0
553,553,-0.8070638965446084,-0.8,1.0,400.0,837.0,1.0,483.0,1,1.0,0.0
554,554,-0.36663224459558696,-0.4,1.0,424.0,784.0,1.0,-38.0,1,1.0,0.0
555,555,0.5432139876833607,0.5,0.0,268.0,839.0,0.0,3893.0,1,1.0,1.0
556,556,0.041419374637609696,0.0,1.0,397.0,948.0,0.0,-1275.0,0,0.0,0.0
557,557,0.27187772246917874,0.3,1.0,434.0,665.0,0.0,-1039.0,0,0.0,0.0
558,558,-0.4207406781794074,-0.4,0.0,280.0,623.0,0.0,1057.0,1,0.0,0.0
559,559,0.525446644261956,0.5,0.0,462.0,938.0,0.0,3600.0,1,1.0,1.0
560,560,-0.6765472527313087,-0.7,1.0,272.0,504.0,0.0,1004.0,0,1.0,1.0
561,561,-0.3236543362356441,-0.3,0.0,411.0,625.0,1.0,-1016.0,0,0.0,1.0
562,562,-0.6927754003969125,-0.7,1.0,426.0,852.0,1.0,1542.0,1,1.0,0.0
563,563,0.6936553065244638,0.7,1.0,337.0,518.0,1.0,1525.0,1,0.0,1.0
564,564,-0.021330239236287185,-0.0,0.0,436.0,563.0,0.0,4001.0,1,0.0,0.0
565,565,-0.4890386180618191,-0.5,1.0,437.0,608.0,1.0,3955.0,1,1.0,0.0
566,566,0.6665664821772702,0.7,0.0,392.0,622.0,0.0,-934.0,1,1.0,1.0
567,567,0.4714664001340473,0.5,1.0,349.0,622.0,0.0,-921.0,0,0.0,0.0
568,568,-0.33265624231676594,-0.3,1.0,448.0,858.0,1.0,2094.0,1,1.0,0.0
569,569,-0.1782498234722183,-0.2,1.0,367.0,964.0,0.0,-1281.0,0,1.0,1.0
570,570,0.6767556534037343,0.7,0.0,290.0,889.0,0.0,2911.0,1,1.0,1.0
571,571,0.7590370555912119,0.8,0.0,358.0,572.0,0.0,1160.0,1,1.0,1.0
572,572,-0.11934105649968074,-0.1,1.0,399.0,593.0,1.0,3698.0,1,1.0,0.0
573,573,0.12191000546996544,0.1,1.0,363.0,535.0,0.0,4102.0,0,0.0,0.0
574,574,0.7125395338603365,0.7,1.0,486.0,969.0,1.0,955.0,1,0.0,1.0
575,575,0.6922172565747174,0.7,0.0,442.0,800.0,0.0,538.0,1,1.0,1.0
576,576,-0.7625472220071033,-0.8,0.0,262.0,767.0,0.0,181.0,1,0.0,0.0
577,577,-0.10639077117573703,-0.1,1.0,281.0,967.0,1.0,3752.0,1,1.0,0.0
578,578,-0.6213240094666497,-0.6,1.0,498.0,617.0,1.0,995.0,1,1.0,0.0
579,579,0.36389286587096736,0.4,1.0,314.0,825.0,1.0,-1099.0,1,0.0,1.0
580,580,0.4061060864662712,0.4,1.0,351.0,717.0,1.0,-1048.0,1,0.0,1.0
581,581,-0.8641496236244128,-0.9,1.0,479.0,560.0,1.0,3961.0,1,1.0,0.0
582,582,-0.4513187774447049,-0.5,0.0,394.0,629.0,0.0,3977.0,1,0.0,0.0
583,583,0.19363328102317456,0.2,1.0,316.0,510.0,1.0,2654.0,1,0.0,1.0
584,584,-0.12880434399437812,-0.1,1.0,380.0,659.0,1.0,3961.0,1,1.0,0.0
585,585,0.48037517096564086,0.5,1.0,491.0,844.0,1.0,3665.0,1,0.0,1.0
586,586,0.8374942894144287,0.8,0.0,348.0,938.0,0.0,1814.0,1,1.0,1.0
587,587,0.015311401019985404,0.0,1.0,480.0,879.0,1.0,3641.0,1,0.0,1.0
588,588,0.658890540616314,0.7,0.0,377.0,768.0,0.0,2185.0,1,1.0,1.0
589,589,-0.873914342740724,-0.9,1.0,259.0,722.0,1.0,1939.0,1,1.0,0.0
590,590,-0.12173767794220769,-0.1,0.0,488.0,569.0,0.0,783.0,1,0.0,0.0
591,591,-0.6403005208758275,-0.6,1.0,392.0,889.0,0.0,-1241.0,0,1.0,1.0
592,592,-0.5852450851671871,-0.6,0.0,332.0,962.0,0.0,2106.0,1,0.0,0.0
593,593,-0.3512382145592289,-0.4,0.0,469.0,851.0,0.0,3680.0,1,0.0,0.0
594,594,0.5692130872241944,0.6,0.0,424.0,925.0,0.0,1701.0,1,1.0,1.0
595,595,-0.4736784836016398,-0.5,1.0,316.0,659.0,1.0,2555.0,1,1.0,0.0
596,596,0.22984304863690908,0.2,0.0,445.0,664.0,1.0,3891.0,0,1.0,0.0
597,597,-0.24777464601802834,-0.2,1.0,475.0,862.0,1.0,-1277.0,1,1.0,0.0
598,598,0.6783281362960095,0.7,1.0,483.0,590.0,1.0,667.0,1,0.0,1.0
599,599,-0.04479489249077773,-0.0,1.0,343.0,569.0,1.0,4088.0,1,1.0,0.0
600,600,0.5587999738579444,0.6,1.0,485.0,812.0,1.0,2043.0,1,0.0,1.0
601,601,-0.48656267321051444,-0.5,1.0,430.0,864.0,1.0,3706.0,1,1.0,0.0
602,602,-0.24727749660157372,-0.2,1.0,311.0,699.0,1.0,2510.0,1,1.0,0.0
603,603,-0.38684959534993846,-0.4,1.0,481.0,719.0,1.0,3800.0,1,1.0,0.0
604,604,-0.5972985951614451,-0.6,1.0,377.0,616.0,1.0,157.0,1,1.0,0.0
605,605,-0.866686822621582,-0.9,0.0,400.0,920.0,0.0,1250.0,1,0.0,0.0
606,606,-0.027111698600978174,-0.0,0.0,315.0,720.0,0.0,3965.0,1,0.0,0.0
607,607,0.03626360197906353,0.0,0.0,447.0,688.0,1.0,275.0,0,1.0,0.0
608,608,-0.8485196080789373,-0.8,1.0,345.0,599.0,1.0,1996.0,1,1.0,0.0
609,609,-0.5371664115131238,-0.5,1.0,319.0,938.0,1.0,3743.0,1,1.0,0.0
610,610,0.8824411624506271,0.9,1.0,458.0,938.0,1.0,394.0,1,0.0,1.0
611,611,0.033409077391416964,0.0,0.0,426.0,816.0,0.0,3758.0,1,1.0,1.0
612,612,0.23806356772776105,0.2,0.0,266.0,562.0,1.0,-788.0,0,1.0,0.0
613,613,0.32292909322085317,0.3,1.0,269.0,828.0,1.0,633.0,1,0.0,1.0
614,614,0.7949633057930009,0.8,1.0,329.0,983.0,1.0,1028.0,1,0.0,1.0
615,615,0.5818051638928236,0.6,0.0,487.0,580.0,0.0,793.0,1,1.0,1.0
616,616,-0.8605511991802299,-0.9,1.0,358.0,705.0,1.0,237.0,1,1.0,0.0
617,617,-0.850768496970415,-0.9,1.0,322.0,862.0,0.0,-1094.0,0,1.0,1.0
618,618,0.7134758626481023,0.7,0.0,359.0,532.0,1.0,-731.0,0,1.0,0.0
619,619,-0.8099675892052401,-0.8,0.0,278.0,535.0,0.0,-743.0,1,0.0,0.0
620,620,-0.3628345154336826,-0.4,1.0,271.0,725.0,1.0,2414.0,1,1.0,0.0
621,621,-0.14987412803360556,-0.1,1.0,254.0,531.0,1.0,4215.0,1,1.0,0.0
622,622,0.18941373967026232,0.2,0.0,309.0,605.0,0.0,3066.0,1,1.0,1.0
623,623,0.5797113156839212,0.6,1.0,458.0,653.0,1.0,1629.0,1,0.0,1.0
624,624,0.3304766722756768,0.3,0.0,268.0,663.0,0.0,1279.0,1,1.0,1.0
625,625,0.8459298719947005,0.8,1.0,292.0,815.0,1.0,1013.0,1,0.0,1.0
626,626,-0.1926500102824562,-0.2,1.0,252.0,680.0,1.0,4068.0,1,1.0,0.0
627,627,0.6549210132523514,0.7,0.0,381.0,850.0,0.0,1199.0,1,1.0,1.0
628,628,0.04513172230288942,0.0,1.0,368.0,644.0,0.0,-882.0,0,0.0,0.0
629,629,-0.6193330092837988,-0.6,0.0,382.0,731.0,1.0,-1083.0,0,0.0,1.0
630,630,-0.15395050625775486,-0.2,1.0,419.0,997.0,0.0,-1396.0,0,1.0,1.0
631,631,0.11897182885432611,0.1,1.0,273.0,721.0,1.0,4006.0,1,0.0,1.0
632,632,-0.6689978289033892,-0.7,0.0,403.0,910.0,0.0,1267.0,1,0.0,0.0
633,633,0.18026669344221358,0.2,1.0,458.0,749.0,1.0,3793.0,1,0.0,1.0
634,634,-0.5670329690968391,-0.6,0.0,411.0,787.0,0.0,302.0,1,0.0,0.0
635,635,0.2680904191591572,0.3,0.0,368.0,564.0,1.0,4068.0,0,1.0,0.0
636,636,-0.5946006099215493,-0.6,1.0,383.0,901.0,1.0,3716.0,1,1.0,0.0
637,637,0.4690242330189126,0.5,1.0,253.0,980.0,1.0,2547.0,1,0.0,1.0
638,638,-0.8421473585251154,-0.8,1.0,369.0,511.0,0.0,-870.0,0,1.0,1.0
639,639,0.4619660551144683,0.5,1.0,364.0,934.0,1.0,852.0,1,0.0,1.0
640,640,0.4259412127894441,0.4,0.0,468.0,936.0,1.0,-474.0,0,1.0,0.0
641,641,-0.10534723583630923,-0.1,1.0,466.0,749.0,0.0,-1215.0,0,1.0,1.0
642,642,0.571553108406622,0.6,1.0,498.0,712.0,0.0,-1140.0,0,0.0,0.0
643,643,0.11078695252431536,0.1,1.0,422.0,573.0,0.0,-965.0,0,0.0,0.0
644,644,-0.3400955549587028,-0.3,0.0,259.0,913.0,0.0,3318.0,1,0.0,0.0
645,645,0.7368256212907905,0.7,1.0,356.0,749.0,0.0,-1045.0,0,0.0,0.0
646,646,0.787632259818264,0.8,0.0,442.0,770.0,0.0,398.0,1,1.0,1.0
647,647,0.47362909111954166,0.5,1.0,278.0,821.0,0.0,1961.0,0,0.0,0.0
648,648,0.5672714710614449,0.6,0.0,498.0,974.0,0.0,1108.0,1,1.0,1.0
649,649,-0.39315740154458934,-0.4,1.0,480.0,938.0,0.0,-1368.0,0,1.0,1.0
650,650,0.6931040123996125,0.7,0.0,322.0,627.0,0.0,351.0,1,1.0,1.0
651,651,-0.38143308390300823,-0.4,0.0,294.0,569.0,1.0,4137.0,0,0.0,1.0
652,652,0.5007948700527475,0.5,0.0,318.0,593.0,0.0,2889.0,1,1.0,1.0
653,653,0.870047698060609,0.9,1.0,258.0,573.0,1.0,-151.0,1,0.0,1.0
654,654,0.35847170717842014,0.4,0.0,276.0,662.0,0.0,4062.0,1,1.0,1.0
655,655,-0.34873420617435846,-0.3,1.0,494.0,514.0,1.0,32.0,1,1.0,0.0
656,656,0.8954347802359491,0.9,1.0,294.0,857.0,1.0,9.0,1,0.0,1.0
657,657,0.19906023975629406,0.2,0.0,426.0,666.0,1.0,3908.0,0,1.0,0.0
658,658,0.8241643377341946,0.8,0.0,292.0,946.0,0.0,-1128.0,1,1.0,1.0
659,659,-0.0649370825365555,-0.1,0.0,343.0,974.0,1.0,3683.0,0,0.0,1.0
660,660,-0.06908314378293967,-0.1,0.0,422.0,846.0,0.0,3732.0,1,0.0,0.0
661,661,-0.7204059208759778,-0.7,0.0,468.0,716.0,0.0,-1164.0,1,0.0,0.0
662,662,0.7596057916614257,0.8,1.0,437.0,866.0,1.0,287.0,1,0.0,1.0
663,663,0.49538316008560146,0.5,1.0,363.0,651.0,1.0,1126.0,1,0.0,1.0
664,664,0.5906060624873485,0.6,1.0,435.0,803.0,1.0,3212.0,1,0.0,1.0
665,665,-0.8017478726395431,-0.8,0.0,277.0,926.0,0.0,-1163.0,1,0.0,0.0
666,666,-0.3098757354489209,-0.3,0.0,254.0,752.0,0.0,1854.0,1,0.0,0.0
667,667,0.8451405095546504,0.8,1.0,308.0,752.0,1.0,220.0,1,0.0,1.0
668,668,-0.6833883858338323,-0.7,0.0,260.0,877.0,0.0,453.0,1,0.0,0.0
669,669,0.5094268396321885,0.5,0.0,292.0,788.0,0.0,-1060.0,1,1.0,1.0
670,670,0.058092627186707824,0.1,0.0,441.0,739.0,1.0,3820.0,0,1.0,0.0
671,671,-0.6491219677221184,-0.6,1.0,315.0,805.0,1.0,720.0,1,1.0,0.0
672,672,-0.0909936195635439,-0.1,0.0,438.0,736.0,0.0,6.0,1,0.0,0.0
673,673,0.5525661226199335,0.6,1.0,313.0,533.0,1.0,194.0,1,0.0,1.0
674,674,-0.3799337231313318,-0.4,0.0,280.0,858.0,0.0,3862.0,1,0.0,0.0
675,675,0.04386400064321627,0.0,1.0,298.0,561.0,0.0,-779.0,0,0.0,0.0
676,676,-0.7454371336528011,-0.7,0.0,397.0,784.0,0.0,469.0,1,0.0,0.0
677,677,0.3116668902061631,0.3,1.0,458.0,989.0,0.0,3553.0,0,0.0,0.0
678,678,0.7941042352745736,0.8,0.0,458.0,521.0,0.0,161.0,1,1.0,1.0
679,679,0.8495955908633327,0.8,1.0,354.0,763.0,1.0,3883.0,1,0.0,1.0
680,680,0.34901644076778127,0.3,1.0,278.0,824.0,1.0,778.0,1,0.0,1.0
681,681,-0.19318492245265884,-0.2,0.0,285.0,791.0,0.0,3924.0,1,0.0,0.0
682,682,0.2529307783653526,0.3,1.0,393.0,825.0,1.0,2892.0,1,0.0,1.0
683,683,0.23730775012237693,0.2,1.0,298.0,878.0,1.0,1834.0,1,0.0,1.0
684,684,0.7483991816057441,0.7,1.0,360.0,928.0,1.0,1332.0,1,0.0,1.0
685,685,0.3177434826842719,0.3,1.0,393.0,831.0,1.0,-1134.0,1,0.0,1.0
686,686,0.10240871157995535,0.1,1.0,421.0,727.0,0.0,-1108.0,0,0.0,0.0
687,687,-0.474177023610083,-0.5,1.0,339.0,851.0,1.0,-1150.0,1,1.0,0.0
688,688,0.32936577492060015,0.3,0.0,496.0,844.0,0.0,3660.0,1,1.0,1.0
689,689,0.13064336297565748,0.1,0.0,340.0,773.0,1.0,3887.0,0,1.0,0.0
690,690,-0.35725453078293157,-0.4,0.0,391.0,827.0,0.0,-1198.0,1,0.0,0.0
691,691,0.22157065371185947,0.2,0.0,280.0,589.0,1.0,4131.0,0,1.0,0.0
692,692,0.2773093473817613,0.3,0.0,431.0,833.0,1.0,3736.0,0,1.0,0.0
693,693,-0.07289152490569706,-0.1,0.0,465.0,529.0,0.0,4006.0,1,0.0,0.0
694,694,-0.6590989595262357,-0.7,0.0,472.0,724.0,1.0,-1126.0,0,0.0,1.0
695,695,0.01965624705227731,0.0,1.0,477.0,720.0,0.0,3803.0,0,0.0,0.0
696,696,0.28380020387909755,0.3,0.0,368.0,649.0,0.0,-977.0,1,1.0,1.0
697,697,0.12548227889892238,0.1,1.0,284.0,839.0,0.0,3877.0,0,0.0,0.0
698,698,-0.2644566426790005,-0.3,1.0,444.0,594.0,1.0,3962.0,1,1.0,0.0
699,699,-0.854538989051273,-0.9,1.0,487.0,883.0,1.0,1540.0,1,1.0,0.0
700,700,-0.41189520021512505,-0.4,1.0,402.0,554.0,0.0,-906.0,0,1.0,1.0
701,701,-0.4876891718056424,-0.5,1.0,274.0,741.0,0.0,-975.0,0,1.0,1.0
702,702,0.11772089236535754,0.1,0.0,263.0,610.0,1.0,4127.0,0,1.0,0.0
703,703,0.2239997019239267,0.2,1.0,396.0,737.0,0.0,3867.0,0,0.0,0.0
704,704,0.8395261441992298,0.8,0.0,343.0,738.0,1.0,39.0,0,1.0,0.0
705,705,0.14846314882255218,0.1,1.0,257.0,751.0,1.0,2602.0,1,0.0,1.0
706,706,0.5610344852387416,0.6,0.0,281.0,669.0,0.0,4050.0,1,1.0,1.0
707,707,0.050052904153627176,0.1,1.0,399.0,701.0,1.0,3900.0,1,0.0,1.0
708,708,0.34503141020024286,0.3,0.0,314.0,996.0,0.0,3690.0,1,1.0,1.0
709,709,-0.14870942250477293,-0.1,1.0,461.0,734.0,1.0,3805.0,1,1.0,0.0
710,710,0.12373679671636506,0.1,1.0,410.0,951.0,0.0,3639.0,0,0.0,0.0
711,711,-0.6501712642544615,-0.7,0.0,483.0,916.0,0.0,3601.0,1,0.0,0.0
712,712,0.7972948646696066,0.8,1.0,418.0,555.0,1.0,47.0,1,0.0,1.0
713,713,-0.27521731843794583,-0.3,0.0,418.0,551.0,0.0,-929.0,1,0.0,0.0
714,714,-0.6075328850350006,-0.6,1.0,411.0,805.0,1.0,3784.0,1,1.0,0.0
715,715,-0.1366584666249543,-0.1,0.0,488.0,752.0,0.0,1250.0,1,0.0,0.0
716,716,-0.3567804752565543,-0.4,0.0,297.0,667.0,0.0,2686.0,1,0.0,0.0
717,717,-0.5832132695027719,-0.6,1.0,419.0,830.0,1.0,1031.0,1,1.0,0.0
718,718,-0.26270862074227164,-0.3,1.0,394.0,553.0,1.0,4053.0,1,1.0,0.0
719,719,0.6809188609468667,0.7,0.0,499.0,529.0,0.0,-998.0,1,1.0,1.0
720,720,0.20876615056068448,0.2,0.0,331.0,895.0,1.0,3774.0,0,1.0,0.0
721,721,-0.4382319550863704,-0.4,0.0,282.0,725.0,0.0,313.0,1,0.0,0.0
722,722,-0.028060003862363403,-0.0,0.0,496.0,572.0,1.0,3932.0,0,0.0,1.0
723,723,0.15068584430931098,0.2,0.0,389.0,874.0,0.0,3477.0,1,1.0,1.0
724,724,-0.7359533760551529,-0.7,0.0,420.0,836.0,0.0,884.0,1,0.0,0.0
725,725,-0.4786335061022966,-0.5,1.0,413.0,809.0,1.0,3778.0,1,1.0,0.0
726,726,0.7738559520283089,0.8,1.0,445.0,991.0,1.0,334.0,1,0.0,1.0
727,727,0.6422397349259609,0.6,0.0,444.0,831.0,0.0,-1255.0,1,1.0,1.0
728,728,-0.12159324585112852,-0.1,1.0,294.0,909.0,0.0,-1143.0,0,1.0,1.0
729,729,-0.30697158483004927,-0.3,1.0,306.0,815.0,1.0,3469.0,1,1.0,0.0
730,730,-0.8131650330076813,-0.8,0.0,492.0,951.0,0.0,827.0,1,0.0,0.0
731,731,0.518883879795626,0.5,0.0,379.0,502.0,0.0,4119.0,1,1.0,1.0
732,732,-0.040200898932303386,-0.0,1.0,323.0,651.0,0.0,4026.0,0,1.0,1.0
733,733,0.039693489263302295,0.0,0.0,478.0,527.0,0.0,-995.0,1,1.0,1.0
734,734,-0.5679855049054796,-0.6,1.0,433.0,739.0,1.0,1738.0,1,1.0,0.0
735,735,-0.2827442805693927,-0.3,1.0,465.0,877.0,1.0,1558.0,1,1.0,0.0
736,736,-0.5677179032370502,-0.6,1.0,479.0,539.0,1.0,3982.0,1,1.0,0.0
737,737,-0.16956176619441743,-0.2,1.0,474.0,643.0,1.0,63.0,1,1.0,0.0
738,738,0.7768533837343544,0.8,1.0,400.0,994.0,1.0,656.0,1,0.0,1.0
739,739,0.7685996260219107,0.8,1.0,362.0,727.0,1.0,1291.0,1,0.0,1.0
740,740,-0.6874370315317755,-0.7,0.0,305.0,635.0,0.0,1430.0,1,0.0,0.0
741,741,-0.6580226176019439,-0.7,0.0,471.0,652.0,0.0,1187.0,1,0.0,0.0
742,742,0.46490108005161634,0.5,1.0,250.0,751.0,1.0,-951.0,1,0.0,1.0
743,743,-0.8126190423381275,-0.8,0.0,461.0,737.0,0.0,172.0,1,0.0,0.0
744,744,-0.14509968454341726,-0.1,1.0,315.0,761.0,1.0,314.0,1,1.0,0.0
745,745,0.6238807398252285,0.6,0.0,315.0,568.0,0.0,117.0,1,1.0,1.0
746,746,0.5835096907154956,0.6,1.0,274.0,851.0,0.0,-1045.0,0,0.0,0.0
747,747,-0.4237192188068653,-0.4,1.0,344.0,903.0,0.0,-1217.0,0,1.0,1.0
748,748,0.37631481454764326,0.4,1.0,473.0,731.0,1.0,66.0,1,0.0,1.0
749,749,-0.2535193873788931,-0.3,0.0,323.0,797.0,0.0,3880.0,1,0.0,0.0
750,750,-0.29232996996873173,-0.3,1.0,373.0,589.0,1.0,4038.0,1,1.0,0.0
751,751,0.3985694271238004,0.4,1.0,258.0,642.0,1.0,1860.0,1,0.0,1.0
752,752,0.3878297658254256,0.4,1.0,443.0,602.0,1.0,-1015.0,1,0.0,1.0
753,753,-0.7763690452752956,-0.8,0.0,319.0,962.0,0.0,3719.0,1,0.0,0.0
754,754,-0.6365398674310561,-0.6,1.0,257.0,896.0,0.0,-1103.0,0,1.0,1.0
755,755,-0.7896106550864336,-0.8,0.0,252.0,920.0,0.0,1608.0,1,0.0,0.0
756,756,0.7593284398520378,0.8,0.0,411.0,933.0,1.0,-1304.0,0,1.0,0.0
757,757,0.3419257152351668,0.3,0.0,276.0,649.0,0.0,2285.0,1,1.0,1.0
758,758,-0.02122607132348031,-0.0,1.0,492.0,691.0,1.0,117.0,1,1.0,0.0
759,759,0.14692967817296643,0.1,0.0,280.0,898.0,1.0,3822.0,0,1.0,0.0
760,760,0.6058681320731004,0.6,0.0,381.0,667.0,0.0,-998.0,1,1.0,1.0
761,761,-0.8325388560304932,-0.8,0.0,256.0,581.0,0.0,1013.0,1,0.0,0.0
762,762,0.6984395257867616,0.7,0.0,434.0,636.0,0.0,770.0,1,1.0,1.0
763,763,0.4348619387557259,0.4,1.0,428.0,707.0,0.0,-105.0,0,0.0,0.0
764,764,-0.4667699995719406,-0.5,1.0,358.0,769.0,1.0,403.0,1,1.0,0.0
765,765,-0.6981073340542777,-0.7,1.0,290.0,680.0,1.0,580.0,1,1.0,0.0
766,766,-0.7202104980731772,-0.7,0.0,484.0,796.0,0.0,100.0,1,0.0,0.0
767,767,0.8351672800748385,0.8,1.0,359.0,878.0,1.0,853.0,1,0.0,1.0
768,768,0.49184497780719705,0.5,1.0,355.0,932.0,1.0,1243.0,1,0.0,1.0
769,769,0.5045877843451879,0.5,0.0,481.0,701.0,0.0,658.0,1,1.0,1.0
770,770,-0.8880497775645276,-0.9,0.0,413.0,788.0,0.0,-1111.0,1,0.0,0.0
771,771,-0.6741038426976944,-0.7,0.0,443.0,567.0,1.0,-930.0,0,0.0,1.0
772,772,0.47000890482817603,0.5,0.0,288.0,890.0,0.0,1642.0,1,1.0,1.0
773,773,0.29103975947684935,0.3,0.0,450.0,814.0,1.0,3736.0,0,1.0,0.0
774,774,-0.879869126155597,-0.9,0.0,414.0,978.0,1.0,-1382.0,0,0.0,1.0
775,775,-0.799691146744795,-0.8,1.0,254.0,594.0,1.0,272.0,1,1.0,0.0
776,776,0.6342882314362567,0.6,0.0,404.0,890.0,0.0,856.0,1,1.0,1.0
777,777,-0.6696320050647064,-0.7,1.0,377.0,871.0,1.0,3752.0,1,1.0,0.0
778,778,-0.24946702452790048,-0.2,0.0,404.0,530.0,0.0,4066.0,1,0.0,0.0
779,779,-0.010305539498533633,-0.0,0.0,275.0,874.0,0.0,3851.0,1,0.0,0.0
780,780,-0.7721366557153481,-0.8,0.0,428.0,516.0,0.0,906.0,1,0.0,0.0
781,781,-0.8792710623195419,-0.9,1.0,251.0,648.0,1.0,2231.0,1,1.0,0.0
782,782,-0.11502947905565253,-0.1,1.0,256.0,929.0,0.0,-1155.0,0,1.0,1.0
783,783,0.04441397239425848,0.0,0.0,359.0,730.0,1.0,3911.0,0,1.0,0.0
784,784,-0.09825497289115726,-0.1,0.0,308.0,996.0,0.0,3696.0,1,0.0,0.0
785,785,-0.25009242228961615,-0.3,0.0,259.0,953.0,0.0,3788.0,1,0.0,0.0
786,786,-0.4981038834008363,-0.5,0.0,353.0,509.0,0.0,1668.0,1,0.0,0.0
787,787,-0.09882828947657152,-0.1,1.0,264.0,663.0,1.0,4073.0,1,1.0,0.0
788,788,-0.24362110643471857,-0.2,0.0,433.0,797.0,0.0,-1180.0,1,0.0,0.0
789,789,-0.49507953067321514,-0.5,1.0,352.0,588.0,1.0,4060.0,1,1.0,0.0
790,790,-0.12317503457188472,-0.1,1.0,494.0,678.0,1.0,998.0,1,1.0,0.0
791,791,0.3756103572977364,0.4,0.0,299.0,689.0,1.0,-948.0,0,1.0,0.0
792,792,0.03750477220901738,0.0,0.0,320.0,517.0,1.0,4163.0,0,1.0,0.0
793,793,0.6214280397586774,0.6,1.0,265.0,596.0,1.0,2089.0,1,0.0,1.0
794,794,0.1962414408711436,0.2,1.0,328.0,998.0,0.0,3674.0,0,0.0,0.0
795,795,-0.2431107727554418,-0.2,1.0,428.0,769.0,0.0,1383.0,0,1.0,1.0
796,796,-0.4222628273228008,-0.4,0.0,415.0,880.0,0.0,1555.0,1,0.0,0.0
797,797,0.8010446237458922,0.8,1.0,407.0,962.0,0.0,31.0,0,0.0,0.0
798,798,-0.5908474846016851,-0.6,1.0,307.0,816.0,1.0,-1103.0,1,1.0,0.0
799,799,-0.28160400740480984,-0.3,1.0,397.0,520.0,1.0,4083.0,1,1.0,0.0
800,800,0.7226052020099393,0.7,0.0,378.0,907.0,0.0,295.0,1,1.0,1.0
801,801,-0.8594085385920385,-0.9,0.0,465.0,721.0,0.0,2454.0,1,0.0,0.0
802,802,0.2864547839821988,0.3,1.0,464.0,878.0,0.0,-1292.0,0,0.0,0.0
803,803,0.5787385747713395,0.6,0.0,291.0,989.0,0.0,2260.0,1,1.0,1.0
804,804,0.3577901358432217,0.4,0.0,464.0,999.0,0.0,197.0,1,1.0,1.0
805,805,-0.1584584959891696,-0.2,0.0,402.0,656.0,0.0,3942.0,1,0.0,0.0
806,806,0.807410867704483,0.8,0.0,484.0,725.0,0.0,1171.0,1,1.0,1.0
807,807,0.662248156699829,0.7,0.0,374.0,706.0,0.0,770.0,1,1.0,1.0
808,808,-0.23772238101519283,-0.2,0.0,467.0,911.0,1.0,-1358.0,0,0.0,1.0
809,809,0.722613618228053,0.7,0.0,273.0,985.0,0.0,3742.0,1,1.0,1.0
810,810,-0.7929678485638066,-0.8,1.0,442.0,609.0,0.0,-1031.0,0,1.0,1.0
811,811,-0.3972085368185321,-0.4,0.0,480.0,777.0,0.0,-1187.0,1,0.0,0.0
812,812,0.31407082885111104,0.3,0.0,425.0,821.0,1.0,2014.0,0,1.0,0.0
813,813,0.10330317691312396,0.1,1.0,354.0,712.0,0.0,3934.0,0,0.0,0.0
814,814,-0.6673700521809084,-0.7,1.0,250.0,724.0,1.0,4026.0,1,1.0,0.0
815,815,-0.8353227372873415,-0.8,1.0,445.0,586.0,1.0,2489.0,1,1.0,0.0
816,816,0.7536867970535689,0.8,1.0,417.0,833.0,1.0,1040.0,1,0.0,1.0
817,817,0.5326020767428145,0.5,0.0,490.0,650.0,0.0,700.0,1,1.0,1.0
818,818,-0.8008723805453495,-0.8,0.0,467.0,649.0,0.0,564.0,1,0.0,0.0
819,819,-0.16405330002859975,-0.2,1.0,262.0,940.0,0.0,-1182.0,0,1.0,1.0
820,820,0.7371484894789097,0.7,1.0,280.0,949.0,1.0,1251.0,1,0.0,1.0
821,821,0.12187052389411923,0.1,0.0,305.0,904.0,1.0,3791.0,0,1.0,0.0
822,822,-0.010702557326032536,-0.0,1.0,374.0,694.0,1.0,302.0,1,1.0,0.0
823,823,0.746795641936142,0.7,1.0,496.0,913.0,1.0,-1399.0,1,0.0,1.0
824,824,-0.466755787008527,-0.5,0.0,254.0,902.0,0.0,-1146.0,1,0.0,0.0
825,825,0.012085359399841122,0.0,1.0,453.0,598.0,1.0,3949.0,1,0.0,1.0
826,826,-0.2447933346548864,-0.2,1.0,387.0,521.0,1.0,4092.0,1,1.0,0.0
827,827,0.32157276938259416,0.3,1.0,396.0,768.0,1.0,1756.0,1,0.0,1.0
828,828,0.07947280610613028,0.1,0.0,430.0,895.0,1.0,3675.0,0,1.0,0.0
829,829,-0.4554202825220513,-0.5,1.0,441.0,647.0,1.0,1282.0,1,1.0,0.0
830,830,-0.2061425562463176,-0.2,1.0,336.0,759.0,1.0,3905.0,1,1.0,0.0
831,831,-0.737203892792753,-0.7,0.0,464.0,905.0,0.0,201.0,1,0.0,0.0
832,832,-0.6945665544275018,-0.7,0.0,343.0,770.0,0.0,3887.0,1,0.0,0.0
833,833,0.7037612713828941,0.7,1.0,384.0,733.0,1.0,793.0,1,0.0,1.0
834,834,0.6569542345817027,0.7,1.0,341.0,868.0,1.0,831.0,1,0.0,1.0
835,835,0.8845330602544693,0.9,0.0,386.0,601.0,0.0,143.0,1,1.0,1.0
836,836,-0.05168499639948798,-0.1,1.0,482.0,800.0,1.0,3718.0,1,1.0,0.0
837,837,0.1729850185063223,0.2,1.0,357.0,916.0,1.0,3727.0,1,0.0,1.0
838,838,-0.34480603724162173,-0.3,1.0,396.0,952.0,1.0,332.0,1,1.0,0.0
839,839,-0.2905236556678348,-0.3,1.0,460.0,796.0,1.0,1214.0,1,1.0,0.0
840,840,-0.6333844664217222,-0.6,1.0,324.0,714.0,1.0,212.0,1,1.0,0.0
841,841,-0.37559631843478947,-0.4,0.0,375.0,985.0,0.0,3640.0,1,0.0,0.0
842,842,0.08961070882177236,0.1,1.0,351.0,922.0,1.0,3727.0,1,0.0,1.0
843,843,0.7898409340826508,0.8,1.0,401.0,654.0,1.0,185.0,1,0.0,1.0
844,844,-0.6961302545896145,-0.7,1.0,475.0,594.0,0.0,-1049.0,0,1.0,1.0
845,845,-0.383327839666166,-0.4,1.0,337.0,783.0,0.0,-1070.0,0,1.0,1.0
846,846,-0.4511268123570442,-0.5,0.0,395.0,877.0,0.0,258.0,1,0.0,0.0
847,847,0.2921644739835384,0.3,1.0,381.0,943.0,1.0,3676.0,1,0.0,1.0
848,848,-0.5692657648939323,-0.6,0.0,353.0,964.0,0.0,1273.0,1,0.0,0.0
849,849,-0.7315477304223672,-0.7,0.0,402.0,938.0,0.0,3660.0,1,0.0,0.0
850,850,0.04045322678403862,0.0,1.0,346.0,648.0,0.0,4006.0,0,0.0,0.0
851,851,-0.5665206113977621,-0.6,0.0,400.0,838.0,0.0,3032.0,1,0.0,0.0
852,852,0.42613590121367195,0.4,0.0,323.0,893.0,0.0,-1156.0,1,1.0,1.0
853,853,-0.1864844228271122,-0.2,0.0,377.0,643.0,0.0,-950.0,1,0.0,0.0
854,854,-0.4574186771168986,-0.5,0.0,400.0,840.0,0.0,490.0,1,0.0,0.0
855,855,0.7675555196563014,0.8,0.0,491.0,557.0,0.0,2602.0,1,1.0,1.0
856,856,0.8373792959778473,0.8,1.0,262.0,651.0,1.0,1807.0,1,0.0,1.0
857,857,-0.766248921231227,-0.8,1.0,450.0,687.0,0.0,-1137.0,0,1.0,1.0
858,858,0.241488902589733,0.2,0.0,436.0,630.0,1.0,2114.0,0,1.0,0.0
859,859,0.7615790517584523,0.8,0.0,281.0,715.0,0.0,1344.0,1,1.0,1.0
860,860,-0.5567179806299511,-0.6,0.0,362.0,641.0,1.0,-973.0,0,0.0,1.0
861,861,0.8838913414530568,0.9,0.0,261.0,549.0,0.0,40.0,1,1.0,1.0
862,862,-0.7827734616327798,-0.8,0.0,339.0,703.0,0.0,-1002.0,1,0.0,0.0
863,863,0.020770700790424645,0.0,0.0,349.0,644.0,0.0,-973.0,1,1.0,1.0
864,864,0.12435485984892136,0.1,1.0,494.0,832.0,1.0,3674.0,1,0.0,1.0
865,865,-0.8751445645789786,-0.9,1.0,496.0,586.0,1.0,1738.0,1,1.0,0.0
866,866,0.10932526898553963,0.1,1.0,489.0,841.0,0.0,3670.0,0,0.0,0.0
867,867,0.2766755723955422,0.3,1.0,446.0,913.0,1.0,3641.0,1,0.0,1.0
868,868,0.4763442554453047,0.5,1.0,370.0,855.0,1.0,1745.0,1,0.0,1.0
869,869,0.3250912608635689,0.3,0.0,270.0,560.0,0.0,4170.0,1,1.0,1.0
870,870,0.32844303872809,0.3,0.0,322.0,997.0,0.0,2521.0,1,1.0,1.0
871,871,0.8402996019513295,0.8,0.0,274.0,991.0,0.0,2225.0,1,1.0,1.0
872,872,-0.15287932387998981,-0.2,0.0,430.0,765.0,0.0,3805.0,1,0.0,0.0
873,873,-0.274604419858555,-0.3,1.0,365.0,821.0,1.0,3814.0,1,1.0,0.0
874,874,-0.3257076074099664,-0.3,1.0,336.0,907.0,1.0,3757.0,1,1.0,0.0
875,875,0.797076958361055,0.8,1.0,314.0,619.0,0.0,-873.0,0,0.0,0.0
876,876,-0.7265077709453737,-0.7,1.0,421.0,748.0,1.0,621.0,1,1.0,0.0
877,877,-0.8917539292689971,-0.9,1.0,434.0,886.0,1.0,480.0,1,1.0,0.0
878,878,-0.010693916871737819,-0.0,1.0,388.0,549.0,1.0,2463.0,1,1.0,0.0
879,879,0.7348390895519051,0.7,1.0,303.0,628.0,1.0,-911.0,1,0.0,1.0
880,880,-0.7585482052827341,-0.8,1.0,434.0,793.0,1.0,303.0,1,1.0,0.0
881,881,0.8623856021016018,0.9,0.0,459.0,743.0,0.0,1258.0,1,1.0,1.0
882,882,-0.12048942317953404,-0.1,0.0,363.0,581.0,0.0,3166.0,1,0.0,0.0
883,883,-0.6928186013589961,-0.7,1.0,431.0,812.0,1.0,2587.0,1,1.0,0.0
884,884,0.12560498418181731,0.1,1.0,462.0,640.0,0.0,3898.0,0,0.0,0.0
885,885,-0.42745330288611155,-0.4,1.0,303.0,978.0,1.0,3719.0,1,1.0,0.0
886,886,-0.6913387032215955,-0.7,0.0,307.0,684.0,0.0,2469.0,1,0.0,0.0
887,887,0.5372716046943377,0.5,0.0,315.0,880.0,1.0,3805.0,0,1.0,0.0
888,888,-0.8863677905198568,-0.9,0.0,320.0,764.0,0.0,1226.0,1,0.0,0.0
889,889,-0.37319165598293336,-0.4,0.0,302.0,630.0,0.0,-882.0,1,0.0,0.0
890,890,-0.3066128302746569,-0.3,0.0,441.0,737.0,0.0,1382.0,1,0.0,0.0
891,891,0.39010805440301033,0.4,1.0,275.0,802.0,1.0,3923.0,1,0.0,1.0
892,892,-0.8845885408673129,-0.9,1.0,302.0,674.0,1.0,1914.0,1,1.0,0.0
893,893,-0.12156886241724663,-0.1,1.0,432.0,910.0,0.0,-1292.0,0,1.0,1.0
894,894,-0.8302020300459372,-0.8,0.0,321.0,672.0,0.0,2497.0,1,0.0,0.0
895,895,-0.2579317979113084,-0.3,0.0,417.0,858.0,0.0,3725.0,1,0.0,0.0
896,896,0.2087958629403951,0.2,0.0,480.0,808.0,1.0,3712.0,0,1.0,0.0
897,897,-0.4710861599689785,-0.5,0.0,305.0,659.0,0.0,6.0,1,0.0,0.0
898,898,-0.05992863800500936,-0.1,1.0,380.0,905.0,1.0,425.0,1,1.0,0.0
899,899,0.8848555653674258,0.9,0.0,363.0,547.0,0.0,410.0,1,1.0,1.0
900,900,0.22797648126741177,0.2,1.0,472.0,898.0,0.0,1640.0,0,0.0,0.0
901,901,0.35099775073899553,0.4,1.0,409.0,690.0,0.0,-1079.0,0,0.0,0.0
902,902,-0.11457401156295277,-0.1,1.0,448.0,648.0,1.0,3904.0,1,1.0,0.0
903,903,0.3846187887456075,0.4,0.0,334.0,774.0,0.0,-1028.0,1,1.0,1.0
904,904,0.24556372604932497,0.2,0.0,420.0,851.0,0.0,-1231.0,1,1.0,1.0
905,905,0.5350704964175227,0.5,1.0,295.0,663.0,1.0,1412.0,1,0.0,1.0
906,906,0.2990456452596123,0.3,0.0,438.0,514.0,0.0,-912.0,1,1.0,1.0
907,907,-0.3219959163931939,-0.3,1.0,421.0,877.0,0.0,-1288.0,0,1.0,1.0
908,908,0.3195707330456442,0.3,1.0,271.0,549.0,1.0,280.0,1,0.0,1.0
909,909,0.42878651708835835,0.4,0.0,352.0,514.0,0.0,584.0,1,1.0,1.0
910,910,0.03443053997709833,0.0,0.0,343.0,988.0,0.0,3669.0,1,1.0,1.0
911,911,0.12779697739259166,0.1,1.0,334.0,502.0,1.0,4164.0,1,0.0,1.0
912,912,0.8742596584355194,0.9,1.0,447.0,624.0,1.0,-1041.0,1,0.0,1.0
913,913,-0.8802039230477353,-0.9,1.0,367.0,580.0,0.0,-917.0,0,1.0,1.0
914,914,-0.3650617665926911,-0.4,0.0,290.0,675.0,0.0,-895.0,1,0.0,0.0
915,915,-0.8736332344119334,-0.9,0.0,360.0,784.0,0.0,2816.0,1,0.0,0.0
916,916,-0.16910910573158822,-0.2,0.0,310.0,811.0,0.0,3879.0,1,0.0,0.0
917,917,0.4695604082799548,0.5,1.0,489.0,597.0,0.0,-996.0,0,0.0,0.0
918,918,-0.8356475884076873,-0.8,0.0,456.0,727.0,0.0,-1133.0,1,0.0,0.0
919,919,-0.04398722918844178,-0.0,1.0,347.0,647.0,0.0,4006.0,0,1.0,1.0
920,920,0.890328792244553,0.9,0.0,493.0,551.0,0.0,1826.0,1,1.0,1.0
921,921,-0.3656327524391283,-0.4,1.0,329.0,916.0,1.0,3755.0,1,1.0,0.0
922,922,0.41585539623180734,0.4,1.0,481.0,766.0,1.0,403.0,1,0.0,1.0
923,923,0.6463731022287794,0.6,0.0,281.0,806.0,0.0,1113.0,1,1.0,1.0
924,924,0.5945437823901286,0.6,1.0,328.0,784.0,0.0,-1072.0,0,0.0,0.0
925,925,-0.6018960708227983,-0.6,1.0,322.0,697.0,1.0,2301.0,1,1.0,0.0
926,926,-0.14424901967862147,-0.1,0.0,378.0,646.0,1.0,-974.0,0,0.0,1.0
927,927,-0.0542152904796106,-0.1,0.0,386.0,709.0,0.0,3905.0,1,0.0,0.0
928,928,-0.528162604480219,-0.5,1.0,346.0,569.0,1.0,4085.0,1,1.0,0.0
929,929,-0.14843436517970188,-0.1,0.0,475.0,856.0,0.0,3669.0,1,0.0,0.0
930,930,0.8990251134848989,0.9,0.0,441.0,841.0,0.0,978.0,1,1.0,1.0
931,931,-0.38539645317269244,-0.4,1.0,359.0,561.0,1.0,1770.0,1,1.0,0.0
932,932,-0.8139094206873669,-0.8,0.0,469.0,645.0,0.0,-1074.0,1,0.0,0.0
933,933,0.10029106036539737,0.1,0.0,473.0,973.0,0.0,3554.0,1,1.0,1.0
934,934,0.7460000876652954,0.7,0.0,437.0,706.0,0.0,2117.0,1,1.0,1.0
935,935,0.4380807492888509,0.4,1.0,386.0,551.0,1.0,2613.0,1,0.0,1.0
936,936,0.2435571272858047,0.2,1.0,277.0,686.0,1.0,47.0,1,0.0,1.0
937,937,-0.302675320425024,-0.3,0.0,285.0,545.0,0.0,4170.0,1,0.0,0.0
938,938,0.6390131727427194,0.6,0.0,341.0,847.0,0.0,3712.0,1,1.0,1.0
939,939,-0.18838266579109142,-0.2,1.0,418.0,512.0,1.0,4070.0,1,1.0,0.0
940,940,-0.5880460808380781,-0.6,1.0,448.0,762.0,1.0,-1160.0,1,1.0,0.0
941,941,-0.8163453248068724,-0.8,0.0,315.0,570.0,0.0,1555.0,1,0.0,0.0
942,942,0.19951529945118385,0.2,0.0,297.0,817.0,1.0,-364.0,0,1.0,0.0
943,943,-0.4908163819140202,-0.5,1.0,358.0,622.0,1.0,-930.0,1,1.0,0.0
944,944,-0.2052940982083311,-0.2,0.0,459.0,551.0,0.0,3990.0,1,0.0,0.0
945,945,-0.7005524199802186,-0.7,0.0,368.0,651.0,0.0,1341.0,1,0.0,0.0
946,946,0.6265173477987799,0.6,0.0,354.0,999.0,0.0,2467.0,1,1.0,1.0
947,947,-0.3328431851005855,-0.3,1.0,368.0,592.0,1.0,4040.0,1,1.0,0.0
948,948,0.6173755135941205,0.6,0.0,286.0,888.0,0.0,1296.0,1,1.0,1.0
949,949,-0.41178977002156,-0.4,1.0,443.0,847.0,1.0,-1270.0,1,1.0,0.0
950,950,-0.28515665475338614,-0.3,1.0,264.0,868.0,0.0,-1102.0,0,1.0,1.0
951,951,-0.10145875158795303,-0.1,0.0,445.0,513.0,0.0,-898.0,1,0.0,0.0
952,952,-0.060394350805060615,-0.1,1.0,371.0,885.0,1.0,3744.0,1,1.0,0.0
953,953,-0.2774339832113635,-0.3,1.0,396.0,948.0,1.0,466.0,1,1.0,0.0
954,954,0.17560963757169412,0.2,1.0,376.0,893.0,1.0,3731.0,1,0.0,1.0
955,955,0.5954507321779697,0.6,0.0,284.0,696.0,0.0,-870.0,1,1.0,1.0
956,956,-0.1924886752398055,-0.2,1.0,440.0,577.0,1.0,3983.0,1,1.0,0.0
957,957,0.14053318739158194,0.1,0.0,473.0,888.0,1.0,-1331.0,0,1.0,0.0
958,958,0.44225134898892826,0.4,1.0,273.0,872.0,1.0,3855.0,1,0.0,1.0
959,959,-0.640555422047204,-0.6,1.0,358.0,701.0,1.0,321.0,1,1.0,0.0
960,960,0.8512243641407179,0.9,0.0,414.0,535.0,0.0,261.0,1,1.0,1.0
961,961,-0.7507540189113486,-0.8,0.0,389.0,652.0,0.0,-961.0,1,0.0,0.0
962,962,0.4134660603084185,0.4,0.0,430.0,561.0,0.0,2889.0,1,1.0,1.0
963,963,-0.171100853150577,-0.2,1.0,312.0,982.0,1.0,-1264.0,1,1.0,0.0
964,964,0.49286140495366115,0.5,0.0,403.0,675.0,0.0,3342.0,1,1.0,1.0
965,965,0.1193415535547454,0.1,1.0,490.0,896.0,1.0,3614.0,1,0.0,1.0
966,966,-0.11118233674212319,-0.1,1.0,250.0,834.0,1.0,3916.0,1,1.0,0.0
967,967,-0.5830998903729423,-0.6,0.0,459.0,780.0,0.0,321.0,1,0.0,0.0
968,968,-0.5298961025167651,-0.5,0.0,400.0,861.0,0.0,2809.0,1,0.0,0.0
969,969,-0.1785109474316835,-0.2,1.0,341.0,759.0,1.0,990.0,1,1.0,0.0
970,970,-0.49304598805834937,-0.5,0.0,438.0,989.0,0.0,-1417.0,1,0.0,0.0
971,971,0.31234582817527834,0.3,0.0,272.0,950.0,0.0,2178.0,1,1.0,1.0
972,972,0.6880660834596312,0.7,0.0,476.0,917.0,0.0,1017.0,1,1.0,1.0
973,973,0.6735714218127667,0.7,1.0,251.0,644.0,1.0,385.0,1,0.0,1.0
974,974,-0.03370798537282371,-0.0,0.0,300.0,738.0,0.0,-978.0,1,0.0,0.0
975,975,-0.6338470117330537,-0.6,1.0,291.0,787.0,0.0,-1058.0,0,1.0,1.0
976,976,-0.2753561239399117,-0.3,1.0,272.0,934.0,0.0,-1146.0,0,1.0,1.0
977,977,-0.18673238604453302,-0.2,0.0,310.0,817.0,1.0,3873.0,0,0.0,1.0
978,978,0.5565112482118076,0.6,0.0,346.0,908.0,0.0,936.0,1,1.0,1.0
979,979,-0.3844366732393574,-0.4,1.0,444.0,599.0,1.0,3957.0,1,1.0,0.0
980,980,-0.7372625464399697,-0.7,0.0,450.0,528.0,0.0,-908.0,1,0.0,0.0
981,981,-0.2557479801460715,-0.3,1.0,361.0,671.0,1.0,-82.0,1,1.0,0.0
982,982,0.8196394208763419,0.8,1.0,478.0,577.0,0.0,-1005.0,0,0.0,0.0
983,983,0.8328975550376444,0.8,1.0,347.0,644.0,1.0,49.0,1,0.0,1.0
984,984,0.059072142709055475,0.1,1.0,275.0,543.0,1.0,4182.0,1,0.0,1.0
985,985,-0.23396543262610714,-0.2,0.0,427.0,615.0,0.0,3688.0,1,0.0,0.0
986,986,-0.055875641319275804,-0.1,1.0,466.0,862.0,1.0,3672.0,1,1.0,0.0
987,987,0.5044510683838977,0.5,1.0,350.0,788.0,1.0,3862.0,1,0.0,1.0
988,988,-0.5376802666904512,-0.5,1.0,327.0,919.0,1.0,-96.0,1,1.0,0.0
989,989,-0.10482161884373287,-0.1,1.0,399.0,657.0,1.0,3944.0,1,1.0,0.0
990,990,-0.3208637017963817,-0.3,0.0,372.0,878.0,0.0,3750.0,1,0.0,0.0
991,991,-0.6132165012684367,-0.6,0.0,299.0,860.0,0.0,3841.0,1,0.0,0.0
992,992,0.2895422197849996,0.3,1.0,481.0,791.0,0.0,3728.0,0,0.0,0.0
993,993,-0.17847452118621898,-0.2,0.0,419.0,514.0,0.0,-863.0,1,0.0,0.0
994,994,-0.5423581518668619,-0.5,1.0,324.0,754.0,1.0,1922.0,1,1.0,0.0
995,995,0.5233691381352917,0.5,0.0,371.0,507.0,1.0,4122.0,0,1.0,0.0
996,996,0.5694158510398807,0.6,1.0,292.0,921.0,1.0,2847.0,1,0.0,1.0
997,997,0.6675227026264742,0.7,1.0,452.0,516.0,1.0,922.0,1,0.0,1.0
998,998,-0.46213057584809397,-0.5,0.0,449.0,841.0,0.0,-580.0,1,0.0,0.0
999,999,0.574189215980711,0.6,0.0,409.0,745.0,0.0,1956.0,1,1.0,1.0
1000,1000,-0.10159317403206602,-0.1,1.0,434.0,721.0,1.0,505.0,1,1.0,0.0
1001,1001,-0.8247665402642896,-0.8,1.0,355.0,555.0,0.0,-880.0,0,1.0,1.0
1002,1002,0.649632860343715,0.6,0.0,356.0,691.0,0.0,-1017.0,1,1.0,1.0
1003,1003,0.17806100557506432,0.2,1.0,322.0,783.0,1.0,455.0,1,0.0,1.0
1004,1004,-0.07954411338589917,-0.1,0.0,270.0,976.0,0.0,-1216.0,1,0.0,0.0
1005,1005,0.2402566470578552,0.2,0.0,386.0,573.0,0.0,4041.0,1,1.0,1.0
1006,1006,0.023290854469320554,0.0,1.0,388.0,893.0,1.0,3719.0,1,0.0,1.0
1007,1007,-0.8340102251881585,-0.8,1.0,384.0,968.0,1.0,-1312.0,1,1.0,0.0
1008,1008,0.165079605188439,0.2,1.0,338.0,900.0,1.0,3762.0,1,0.0,1.0
1009,1009,-0.36163992223281816,-0.4,1.0,489.0,852.0,1.0,3659.0,1,1.0,0.0
1010,1010,-0.4514086209856949,-0.5,1.0,360.0,880.0,0.0,-1150.0,0,1.0,1.0
1011,1011,0.16634837662673585,0.2,1.0,266.0,699.0,0.0,1985.0,0,0.0,0.0
1012,1012,0.0852237867260035,0.1,1.0,397.0,685.0,1.0,1138.0,1,0.0,1.0
1013,1013,0.8301990623114935,0.8,0.0,373.0,939.0,0.0,-1302.0,1,1.0,1.0
1014,1014,-0.4028687264546912,-0.4,1.0,329.0,909.0,1.0,3762.0,1,1.0,0.0
1015,1015,-0.5009557027257633,-0.5,0.0,334.0,993.0,0.0,2053.0,1,0.0,0.0
1016,1016,-0.8032599242646485,-0.8,1.0,431.0,675.0,1.0,3894.0,1,1.0,0.0
1017,1017,0.3648975594739333,0.4,1.0,318.0,911.0,1.0,3771.0,1,0.0,1.0
1018,1018,0.8142918446866728,0.8,0.0,344.0,728.0,0.0,178.0,1,1.0,1.0
1019,1019,0.7267898889004588,0.7,1.0,401.0,644.0,1.0,135.0,1,0.0,1.0
1020,1020,0.2970971041530238,0.3,1.0,403.0,526.0,0.0,-869.0,0,0.0,0.0
1021,1021,0.16328972448049794,0.2,0.0,328.0,771.0,1.0,1601.0,0,1.0,0.0
1022,1022,-0.18088372565561917,-0.2,1.0,358.0,918.0,1.0,3724.0,1,1.0,0.0
1023,1023,0.6315795243261907,0.6,1.0,365.0,600.0,1.0,3725.0,1,0.0,1.0
1024,1024,-0.5622502833074545,-0.6,0.0,376.0,686.0,0.0,1268.0,1,0.0,0.0
1025,1025,-0.2791541166235345,-0.3,0.0,268.0,878.0,1.0,-1116.0,0,0.0,1.0
1026,1026,0.8689558697155603,0.9,1.0,437.0,697.0,1.0,-1134.0,1,0.0,1.0
1027,1027,0.37225521076347257,0.4,0.0,353.0,792.0,0.0,2165.0,1,1.0,1.0
1028,1028,-0.23132259997373839,-0.2,0.0,480.0,598.0,0.0,3922.0,1,0.0,0.0
1029,1029,0.302314171952358,0.3,1.0,294.0,962.0,0.0,-1236.0,0,0.0,0.0
1030,1030,-0.40726380154614067,-0.4,1.0,499.0,920.0,1.0,1951.0,1,1.0,0.0
1031,1031,0.6852534751553149,0.7,0.0,480.0,764.0,0.0,36.0,1,1.0,1.0
1032,1032,0.6050413975059504,0.6,1.0,430.0,581.0,1.0,3989.0,1,0.0,1.0
1033,1033,-0.5872792253718004,-0.6,1.0,265.0,882.0,1.0,3853.0,1,1.0,0.0
1034,1034,0.6253190921158868,0.6,0.0,298.0,965.0,0.0,3027.0,1,1.0,1.0
1035,1035,0.5410377068529238,0.5,0.0,489.0,670.0,0.0,71.0,1,1.0,1.0
1036,1036,-0.4137985624685322,-0.4,1.0,253.0,861.0,1.0,3886.0,1,1.0,0.0
1037,1037,-0.5825072029385874,-0.6,0.0,496.0,716.0,0.0,2978.0,1,0.0,0.0
1038,1038,0.5673803318569844,0.6,1.0,259.0,681.0,0.0,-850.0,0,0.0,0.0
1039,1039,0.13784997363751217,0.1,0.0,268.0,618.0,1.0,-856.0,0,1.0,0.0
1040,1040,0.783607238518569,0.8,1.0,303.0,755.0,1.0,282.0,1,0.0,1.0
1041,1041,0.5284505124030549,0.5,1.0,331.0,882.0,1.0,3787.0,1,0.0,1.0
1042,1042,-0.6187584989918018,-0.6,0.0,459.0,947.0,0.0,1194.0,1,0.0,0.0
1043,1043,-0.10514807825080463,-0.1,0.0,471.0,775.0,0.0,214.0,1,0.0,0.0
1044,1044,0.01658890411115188,0.0,1.0,314.0,776.0,0.0,3910.0,0,0.0,0.0
1045,1045,-0.8698585553553051,-0.9,0.0,415.0,569.0,0.0,1196.0,1,0.0,0.0
1046,1046,-0.40580866371396584,-0.4,1.0,459.0,519.0,1.0,1262.0,1,1.0,0.0
1047,1047,0.6658403202060258,0.7,1.0,270.0,953.0,1.0,-1193.0,1,0.0,1.0
1048,1048,0.8938773937399774,0.9,0.0,383.0,950.0,0.0,-1283.0,1,1.0,1.0
1049,1049,0.7827232383746136,0.8,0.0,308.0,610.0,0.0,-898.0,1,1.0,1.0
1050,1050,-0.14775460710497268,-0.1,0.0,382.0,591.0,0.0,-943.0,1,0.0,0.0
1051,1051,0.5488744799571282,0.5,1.0,482.0,636.0,1.0,852.0,1,0.0,1.0
1052,1052,-0.8355072301686933,-0.8,0.0,388.0,887.0,1.0,-1245.0,0,0.0,1.0
1053,1053,0.1479074014790921,0.1,1.0,312.0,970.0,1.0,2728.0,1,0.0,1.0
1054,1054,-0.1407435828180822,-0.1,1.0,376.0,977.0,0.0,-1313.0,0,1.0,1.0
1055,1055,0.22535300561222849,0.2,1.0,315.0,592.0,0.0,4093.0,0,0.0,0.0
1056,1056,-0.20274691372397335,-0.2,0.0,363.0,514.0,1.0,4123.0,0,0.0,1.0
1057,1057,-0.16201290065878793,-0.2,1.0,266.0,670.0,0.0,-886.0,0,1.0,1.0
1058,1058,-0.4235259269261195,-0.4,1.0,475.0,923.0,1.0,3602.0,1,1.0,0.0
1059,1059,-0.6103802440353951,-0.6,1.0,446.0,792.0,1.0,1202.0,1,1.0,0.0
1060,1060,0.5766030085203694,0.6,1.0,368.0,617.0,0.0,-935.0,0,0.0,0.0
1061,1061,-0.7985727994835945,-0.8,0.0,378.0,824.0,0.0,-82.0,1,0.0,0.0
1062,1062,0.624976171593581,0.6,1.0,425.0,966.0,1.0,3609.0,1,0.0,1.0
1063,1063,0.5301031295209112,0.5,0.0,430.0,635.0,0.0,-1055.0,1,1.0,1.0
1064,1064,0.396914989987213,0.4,1.0,381.0,636.0,1.0,3983.0,1,0.0,1.0
1065,1065,-0.312016941316809,-0.3,0.0,262.0,544.0,0.0,4194.0,1,0.0,0.0
1066,1066,-0.8900442269235503,-0.9,0.0,262.0,625.0,0.0,1003.0,1,0.0,0.0
1067,1067,-0.7914057595447727,-0.8,0.0,257.0,576.0,0.0,447.0,1,0.0,0.0
1068,1068,-0.5214328617286133,-0.5,1.0,410.0,864.0,1.0,886.0,1,1.0,0.0
1069,1069,0.6581799175589861,0.7,0.0,458.0,964.0,0.0,1068.0,1,1.0,1.0
1070,1070,0.7347622264512742,0.7,0.0,378.0,889.0,0.0,63.0,1,1.0,1.0
1071,1071,-0.6131288176562557,-0.6,0.0,262.0,996.0,0.0,762.0,1,0.0,0.0
1072,1072,-0.6423748606017298,-0.6,1.0,486.0,870.0,1.0,3644.0,1,1.0,0.0
1073,1073,-0.5499942902644344,-0.5,0.0,273.0,655.0,0.0,1072.0,1,0.0,0.0
1074,1074,0.2725294967122295,0.3,0.0,283.0,740.0,0.0,2497.0,1,1.0,1.0
1075,1075,0.406792461897869,0.4,0.0,486.0,674.0,0.0,-1130.0,1,1.0,1.0
1076,1076,0.6898566129035403,0.7,1.0,302.0,910.0,1.0,3788.0,1,0.0,1.0
1077,1077,-0.6085477816334672,-0.6,0.0,321.0,523.0,0.0,3396.0,1,0.0,0.0
1078,1078,-0.6688678681043678,-0.7,0.0,346.0,660.0,0.0,-956.0,1,0.0,0.0
1079,1079,0.226239054797703,0.2,1.0,434.0,900.0,1.0,-1324.0,1,0.0,1.0
1080,1080,-0.3534455172400076,-0.4,1.0,307.0,969.0,1.0,-1226.0,1,1.0,0.0
1081,1081,0.23927961520151497,0.2,1.0,452.0,949.0,1.0,3599.0,1,0.0,1.0
1082,1082,-0.553398675106296,-0.6,1.0,431.0,982.0,1.0,-13.0,1,1.0,0.0
1083,1083,0.5641213935330008,0.6,1.0,396.0,766.0,0.0,-1092.0,0,0.0,0.0
1084,1084,-0.744212766203317,-0.7,1.0,277.0,517.0,1.0,4206.0,1,1.0,0.0
1085,1085,-0.5391098775855807,-0.5,0.0,407.0,774.0,0.0,1089.0,1,0.0,0.0
1086,1086,0.36030531099251706,0.4,1.0,341.0,504.0,1.0,3035.0,1,0.0,1.0
1087,1087,0.2728130859503398,0.3,0.0,475.0,914.0,1.0,241.0,0,1.0,0.0
1088,1088,-0.2434449940934047,-0.2,1.0,311.0,960.0,1.0,3729.0,1,1.0,0.0
1089,1089,0.24531014786177996,0.2,1.0,336.0,956.0,0.0,3708.0,0,0.0,0.0
1090,1090,-0.5630689262762405,-0.6,1.0,366.0,781.0,1.0,3853.0,1,1.0,0.0
1091,1091,0.8917311733341325,0.9,1.0,278.0,810.0,1.0,242.0,1,0.0,1.0
1092,1092,0.8902805550936469,0.9,0.0,300.0,886.0,0.0,984.0,1,1.0,1.0
1093,1093,0.8584093558950102,0.9,0.0,422.0,554.0,1.0,-926.0,0,1.0,0.0
1094,1094,-0.45762041287514227,-0.5,0.0,368.0,725.0,0.0,3317.0,1,0.0,0.0
1095,1095,-0.589348584742811,-0.6,0.0,462.0,566.0,0.0,1612.0,1,0.0,0.0
1096,1096,0.15399959693703946,0.2,1.0,391.0,616.0,0.0,243.0,0,0.0,0.0
1097,1097,0.3762633407841821,0.4,1.0,365.0,557.0,0.0,228.0,0,0.0,0.0
1098,1098,-0.8892083932654601,-0.9,0.0,290.0,795.0,0.0,1335.0,1,0.0,0.0
1099,1099,-0.41494146436829954,-0.4,1.0,493.0,780.0,1.0,3727.0,1,1.0,0.0
1100,1100,-0.29726358607749814,-0.3,0.0,397.0,874.0,0.0,979.0,1,0.0,0.0
1101,1101,0.2669356064362375,0.3,1.0,345.0,763.0,1.0,3232.0,1,0.0,1.0
1102,1102,0.37676511196694806,0.4,1.0,307.0,708.0,0.0,-985.0,0,0.0,0.0
1103,1103,-0.2801974438081639,-0.3,0.0,354.0,940.0,0.0,-1274.0,1,0.0,0.0
1104,1104,-0.2212069560296026,-0.2,0.0,273.0,826.0,1.0,3901.0,0,0.0,1.0
1105,1105,-0.8676609561280707,-0.9,0.0,497.0,554.0,1.0,-991.0,0,0.0,1.0
1106,1106,0.7445331534930225,0.7,1.0,322.0,622.0,1.0,-934.0,1,0.0,1.0
1107,1107,-0.8090280384065274,-0.8,0.0,393.0,691.0,0.0,996.0,1,0.0,0.0
1108,1108,-0.8669952223883668,-0.9,1.0,463.0,695.0,1.0,3842.0,1,1.0,0.0
1109,1109,0.4166924587217168,0.4,1.0,301.0,968.0,1.0,3731.0,1,0.0,1.0
1110,1110,-0.28566654984443296,-0.3,1.0,305.0,723.0,1.0,3972.0,1,1.0,0.0
1111,1111,-0.4002049560069983,-0.4,0.0,285.0,515.0,0.0,4200.0,1,0.0,0.0
1112,1112,0.3790079653510444,0.4,0.0,348.0,560.0,0.0,3832.0,1,1.0,1.0
1113,1113,-0.7313985046904452,-0.7,1.0,401.0,927.0,1.0,-1298.0,1,1.0,0.0
1114,1114,-0.49940988280650206,-0.5,1.0,494.0,757.0,0.0,-1191.0,0,1.0,1.0
1115,1115,0.4564810403477909,0.5,1.0,286.0,515.0,1.0,329.0,1,0.0,1.0
1116,1116,0.7112769451546207,0.7,1.0,408.0,538.0,0.0,-906.0,0,0.0,0.0
1117,1117,-0.055575270274395794,-0.1,1.0,285.0,718.0,1.0,1247.0,1,1.0,0.0
1118,1118,-0.5296577512724078,-0.5,1.0,278.0,976.0,1.0,1656.0,1,1.0,0.0
1119,1119,0.4114515044006969,0.4,1.0,349.0,647.0,0.0,-916.0,0,0.0,0.0
1120,1120,-0.19622417736211972,-0.2,0.0,301.0,610.0,0.0,4089.0,1,0.0,0.0
1121,1121,0.5889126090479274,0.6,1.0,251.0,877.0,1.0,92.0,1,0.0,1.0
1122,1122,-0.6427653287575474,-0.6,1.0,413.0,997.0,1.0,1560.0,1,1.0,0.0
1123,1123,-0.654039745890856,-0.7,0.0,316.0,820.0,0.0,-1116.0,1,0.0,0.0
1124,1124,0.8495058835963832,0.8,0.0,286.0,663.0,0.0,1021.0,1,1.0,1.0
1125,1125,-0.20253628493268772,-0.2,0.0,481.0,771.0,1.0,3728.0,0,0.0,1.0
1126,1126,-0.48776413306514993,-0.5,0.0,254.0,526.0,0.0,2350.0,1,0.0,0.0
1127,1127,0.8419133278007175,0.8,0.0,434.0,521.0,0.0,25.0,1,1.0,1.0
1128,1128,0.3071372546948111,0.3,1.0,337.0,764.0,0.0,3899.0,0,0.0,0.0
1129,1129,0.3428564442083958,0.3,1.0,431.0,570.0,0.0,-951.0,0,0.0,0.0
1130,1130,0.5623019648970061,0.6,1.0,477.0,982.0,1.0,3541.0,1,0.0,1.0
1131,1131,-0.8973443712157382,-0.9,0.0,257.0,922.0,0.0,781.0,1,0.0,0.0
1132,1132,-0.13371874201627054,-0.1,1.0,303.0,641.0,0.0,-894.0,0,1.0,1.0
1133,1133,-0.5660443249328253,-0.6,1.0,496.0,772.0,1.0,212.0,1,1.0,0.0
1134,1134,-0.1605901852243875,-0.2,1.0,404.0,980.0,0.0,3616.0,0,1.0,1.0
1135,1135,0.8871245653457,0.9,1.0,338.0,793.0,1.0,219.0,1,0.0,1.0
1136,1136,0.7568446740681788,0.8,1.0,312.0,556.0,1.0,62.0,1,0.0,1.0
1137,1137,-0.34616405730511246,-0.3,1.0,332.0,777.0,0.0,-1039.0,0,1.0,1.0
1138,1138,0.4350163361656959,0.4,1.0,419.0,834.0,1.0,3017.0,1,0.0,1.0
1139,1139,-0.0774235409659998,-0.1,0.0,335.0,506.0,0.0,-811.0,1,0.0,0.0
1140,1140,-0.5702118519772128,-0.6,0.0,346.0,577.0,0.0,527.0,1,0.0,0.0
1141,1141,0.2503566080478049,0.3,0.0,480.0,666.0,0.0,-1116.0,1,1.0,1.0
1142,1142,-0.6148226735890097,-0.6,1.0,402.0,934.0,1.0,484.0,1,1.0,0.0
1143,1143,0.8671649576211132,0.9,0.0,298.0,778.0,0.0,714.0,1,1.0,1.0
1144,1144,-0.02200221840363925,-0.0,1.0,416.0,629.0,1.0,3955.0,1,1.0,0.0
1145,1145,-0.7389667028710449,-0.7,0.0,335.0,881.0,1.0,-1206.0,0,0.0,1.0
1146,1146,-0.7235245119246104,-0.7,1.0,445.0,765.0,1.0,3790.0,1,1.0,0.0
1147,1147,-0.056906661562279304,-0.1,1.0,364.0,594.0,0.0,-868.0,0,1.0,1.0
1148,1148,0.46798807058022474,0.5,0.0,267.0,922.0,1.0,3811.0,0,1.0,0.0
1149,1149,0.7866413847900101,0.8,1.0,432.0,700.0,1.0,278.0,1,0.0,1.0
1150,1150,-0.2670299065457019,-0.3,0.0,308.0,995.0,0.0,3697.0,1,0.0,0.0
1151,1151,0.8443994184485218,0.8,0.0,265.0,983.0,1.0,-218.0,0,1.0,0.0
1152,1152,-0.573336749671088,-0.6,0.0,264.0,858.0,1.0,-1042.0,0,0.0,1.0
1153,1153,0.22643016477670008,0.2,1.0,495.0,880.0,0.0,-1285.0,0,0.0,0.0
1154,1154,0.8135351943538826,0.8,1.0,450.0,915.0,0.0,-1305.0,0,0.0,0.0
1155,1155,-0.8678632660353495,-0.9,0.0,320.0,773.0,0.0,187.0,1,0.0,0.0
1156,1156,0.7417367988471545,0.7,0.0,490.0,613.0,0.0,387.0,1,1.0,1.0
1157,1157,-0.6914210832783535,-0.7,1.0,369.0,871.0,1.0,3480.0,1,1.0,0.0
1158,1158,-0.27497317067099436,-0.3,1.0,470.0,780.0,1.0,3750.0,1,1.0,0.0
1159,1159,0.684163546912436,0.7,0.0,458.0,650.0,1.0,-1088.0,0,1.0,0.0
1160,1160,-0.13922111665162518,-0.1,0.0,494.0,863.0,0.0,413.0,1,0.0,0.0
1161,1161,0.8567906161453028,0.9,0.0,452.0,786.0,0.0,-1208.0,1,1.0,1.0
1162,1162,-0.026049720439220825,-0.0,1.0,401.0,789.0,1.0,1170.0,1,1.0,0.0
1163,1163,-0.6178576454928519,-0.6,1.0,363.0,791.0,1.0,636.0,1,1.0,0.0
1164,1164,-0.39366209930842233,-0.4,0.0,483.0,820.0,0.0,2877.0,1,0.0,0.0
1165,1165,0.12918773330935374,0.1,0.0,373.0,534.0,1.0,4093.0,0,1.0,0.0
1166,1166,0.7133648217561587,0.7,0.0,445.0,521.0,0.0,204.0,1,1.0,1.0
1167,1167,0.8953181016648591,0.9,1.0,442.0,658.0,1.0,290.0,1,0.0,1.0
1168,1168,0.8665879826501809,0.9,0.0,410.0,732.0,0.0,188.0,1,1.0,1.0
1169,1169,0.6404682481897556,0.6,1.0,488.0,537.0,0.0,-985.0,0,0.0,0.0
1170,1170,-0.6490466498679854,-0.6,1.0,258.0,819.0,1.0,1923.0,1,1.0,0.0
1171,1171,0.5089433599560854,0.5,0.0,339.0,524.0,0.0,407.0,1,1.0,1.0
1172,1172,0.6818617492681486,0.7,1.0,310.0,800.0,1.0,2870.0,1,0.0,1.0
1173,1173,0.39797398068056167,0.4,0.0,350.0,749.0,0.0,3901.0,1,1.0,1.0
1174,1174,0.7168062328319894,0.7,0.0,433.0,844.0,0.0,2813.0,1,1.0,1.0
1175,1175,-0.3231744548129969,-0.3,1.0,290.0,721.0,1.0,3989.0,1,1.0,0.0
1176,1176,0.11140343852495149,0.1,1.0,359.0,584.0,0.0,4057.0,0,0.0,0.0
1177,1177,0.20544329113885096,0.2,1.0,313.0,627.0,1.0,-890.0,1,0.0,1.0
1178,1178,0.6886398066750125,0.7,0.0,300.0,589.0,0.0,3591.0,1,1.0,1.0
1179,1179,-0.4888531182716496,-0.5,0.0,444.0,918.0,0.0,698.0,1,0.0,0.0
1180,1180,0.386652711848113,0.4,1.0,441.0,789.0,1.0,80.0,1,0.0,1.0
1181,1181,0.14916003889465024,0.1,0.0,377.0,633.0,1.0,3990.0,0,1.0,0.0
1182,1182,0.7347568853921344,0.7,1.0,250.0,980.0,1.0,1740.0,1,0.0,1.0
1183,1183,0.2809174635017849,0.3,1.0,304.0,653.0,0.0,513.0,0,0.0,0.0
1184,1184,0.08829934105573223,0.1,0.0,359.0,845.0,1.0,3796.0,0,1.0,0.0
1185,1185,0.8877064680582657,0.9,0.0,252.0,579.0,0.0,169.0,1,1.0,1.0
1186,1186,-0.12315415096701499,-0.1,1.0,354.0,627.0,1.0,4019.0,1,1.0,0.0
1187,1187,-0.769640202730392,-0.8,1.0,296.0,962.0,1.0,3742.0,1,1.0,0.0
1188,1188,0.24812206433711215,0.2,0.0,495.0,789.0,1.0,3716.0,0,1.0,0.0
1189,1189,0.013353238969465941,0.0,0.0,387.0,735.0,1.0,3878.0,0,1.0,0.0
1190,1190,-0.09441572382447738,-0.1,0.0,252.0,967.0,0.0,-1189.0,1,0.0,0.0
1191,1191,0.4956827745598026,0.5,1.0,371.0,686.0,1.0,3943.0,1,0.0,1.0
1192,1192,0.05047011502457621,0.1,0.0,408.0,673.0,1.0,-1031.0,0,1.0,0.0
1193,1193,-0.027754812261604367,-0.0,0.0,290.0,940.0,0.0,3770.0,1,0.0,0.0
1194,1194,0.8661905846564267,0.9,1.0,336.0,987.0,1.0,527.0,1,0.0,1.0
1195,1195,0.5736724498710036,0.6,0.0,256.0,611.0,0.0,2013.0,1,1.0,1.0
1196,1196,0.04172485170889462,0.0,1.0,334.0,916.0,0.0,-1220.0,0,0.0,0.0
1197,1197,0.3266332599056224,0.3,0.0,386.0,649.0,1.0,3965.0,0,1.0,0.0
1198,1198,-0.032790287698759024,-0.0,0.0,453.0,740.0,1.0,3807.0,0,0.0,1.0
1199,1199,0.599743733549306,0.6,1.0,345.0,648.0,1.0,727.0,1,0.0,1.0
1200,1200,0.24350797200356922,0.2,0.0,450.0,638.0,0.0,3912.0,1,1.0,1.0
1201,1201,-0.21512427498101838,-0.2,0.0,484.0,573.0,0.0,-1037.0,1,0.0,0.0
1202,1202,-0.38905613454685806,-0.4,1.0,307.0,733.0,1.0,3960.0,1,1.0,0.0
1203,1203,-0.8438230679160513,-0.8,0.0,313.0,983.0,0.0,-1216.0,1,0.0,0.0
1204,1204,0.862066564059576,0.9,1.0,259.0,898.0,0.0,-1127.0,0,0.0,0.0
1205,1205,0.3223024862807441,0.3,1.0,355.0,578.0,1.0,1557.0,1,0.0,1.0
1206,1206,-0.45627198058394336,-0.5,0.0,496.0,576.0,0.0,3928.0,1,0.0,0.0
1207,1207,0.39850165486032607,0.4,0.0,347.0,959.0,1.0,3694.0,0,1.0,0.0
1208,1208,0.8111873742081689,0.8,0.0,455.0,932.0,0.0,763.0,1,1.0,1.0
1209,1209,-0.45526911136019943,-0.5,0.0,326.0,836.0,0.0,-1142.0,1,0.0,0.0
1210,1210,0.04342594994389204,0.0,0.0,421.0,727.0,0.0,-1088.0,1,1.0,1.0
1211,1211,0.008117176291420836,0.0,1.0,344.0,966.0,0.0,-540.0,0,0.0,0.0
1212,1212,0.6237737083828895,0.6,0.0,393.0,921.0,0.0,-1274.0,1,1.0,1.0
1213,1213,-0.10138841797967146,-0.1,0.0,365.0,649.0,0.0,-994.0,1,0.0,0.0
1214,1214,-0.0946252075772076,-0.1,1.0,324.0,639.0,1.0,4037.0,1,1.0,0.0
1215,1215,-0.6679388392329203,-0.7,1.0,407.0,843.0,1.0,3750.0,1,1.0,0.0
1216,1216,0.7357751938116278,0.7,1.0,281.0,790.0,1.0,319.0,1,0.0,1.0
1217,1217,-0.7238351898384602,-0.7,1.0,324.0,820.0,1.0,2326.0,1,1.0,0.0
1218,1218,-0.8070605029524928,-0.8,0.0,362.0,741.0,0.0,3897.0,1,0.0,0.0
1219,1219,-0.17219659380379948,-0.2,1.0,375.0,837.0,1.0,3788.0,1,1.0,0.0
1220,1220,-0.035208642986252925,-0.0,0.0,316.0,917.0,1.0,2087.0,0,0.0,1.0
1221,1221,0.0758988608405653,0.1,1.0,491.0,643.0,0.0,3866.0,0,0.0,0.0
1222,1222,0.10281916693070736,0.1,1.0,436.0,767.0,0.0,3797.0,0,0.0,0.0
1223,1223,-0.09165144383396207,-0.1,1.0,457.0,799.0,1.0,3744.0,1,1.0,0.0
1224,1224,-0.48610442636809514,-0.5,1.0,384.0,685.0,1.0,3931.0,1,1.0,0.0
1225,1225,-0.463956654166062,-0.5,1.0,363.0,656.0,1.0,3981.0,1,1.0,0.0
1226,1226,-0.18247765327567356,-0.2,1.0,313.0,522.0,0.0,-785.0,0,1.0,1.0
1227,1227,0.8038401321361347,0.8,1.0,269.0,788.0,1.0,-967.0,1,0.0,1.0
1228,1228,-0.4117992347587476,-0.4,1.0,333.0,880.0,1.0,1357.0,1,1.0,0.0
1229,1229,0.18277146041632653,0.2,0.0,256.0,618.0,0.0,2866.0,1,1.0,1.0
1230,1230,0.17033589257524862,0.2,0.0,469.0,717.0,0.0,-1076.0,1,1.0,1.0
1231,1231,0.6410365068860299,0.6,1.0,329.0,988.0,1.0,3683.0,1,0.0,1.0
1232,1232,-0.8099376427922835,-0.8,0.0,410.0,584.0,0.0,-904.0,1,0.0,0.0
1233,1233,-0.4086174286885917,-0.4,0.0,352.0,634.0,1.0,-936.0,0,0.0,1.0
1234,1234,0.5314984075458521,0.5,1.0,464.0,610.0,1.0,2476.0,1,0.0,1.0
1235,1235,-0.03188323791219039,-0.0,0.0,307.0,688.0,1.0,4005.0,0,0.0,1.0
1236,1236,0.04014086235032355,0.0,1.0,456.0,623.0,1.0,3491.0,1,0.0,1.0
1237,1237,0.8719815186802601,0.9,0.0,426.0,781.0,0.0,-1117.0,1,1.0,1.0
1238,1238,-0.42850508761111783,-0.4,1.0,400.0,545.0,1.0,285.0,1,1.0,0.0
1239,1239,-0.7975239964068913,-0.8,1.0,464.0,929.0,1.0,2467.0,1,1.0,0.0
1240,1240,0.8858790725066644,0.9,0.0,410.0,861.0,0.0,2409.0,1,1.0,1.0
1241,1241,-0.0768676395561868,-0.1,1.0,291.0,886.0,1.0,3823.0,1,1.0,0.0
1242,1242,-0.30471023419738674,-0.3,1.0,304.0,940.0,1.0,3756.0,1,1.0,0.0
1243,1243,0.1078423170640187,0.1,0.0,312.0,719.0,1.0,1439.0,0,1.0,0.0
1244,1244,-0.5323232616947817,-0.5,1.0,385.0,999.0,0.0,-1364.0,0,1.0,1.0
1245,1245,-0.027441734846599286,-0.0,0.0,323.0,734.0,1.0,-1047.0,0,0.0,1.0
1246,1246,0.051521711323178954,0.1,0.0,255.0,952.0,1.0,1343.0,0,1.0,0.0
1247,1247,0.44983492828006166,0.4,1.0,362.0,642.0,1.0,-944.0,1,0.0,1.0
1248,1248,0.3835906207990122,0.4,0.0,490.0,628.0,1.0,3882.0,0,1.0,0.0
1249,1249,0.8517483197517016,0.9,0.0,493.0,964.0,0.0,-1387.0,1,1.0,1.0
1250,1250,0.14702782477440268,0.1,1.0,305.0,837.0,1.0,3458.0,1,0.0,1.0
1251,1251,-0.6416280517699567,-0.6,1.0,261.0,636.0,1.0,4103.0,1,1.0,0.0
1252,1252,-0.040389092395231696,-0.0,0.0,409.0,508.0,0.0,4083.0,1,0.0,0.0
1253,1253,0.00038888434626271895,0.0,0.0,347.0,552.0,1.0,71.0,0,1.0,0.0
1254,1254,-0.6067699631472709,-0.6,1.0,471.0,599.0,1.0,250.0,1,1.0,0.0
1255,1255,0.8029610881436272,0.8,0.0,490.0,909.0,0.0,-1329.0,1,1.0,1.0
1256,1256,-0.45943935121038565,-0.5,0.0,413.0,782.0,0.0,-355.0,1,0.0,0.0
1257,1257,0.02833424158652953,0.0,0.0,393.0,518.0,1.0,2699.0,0,1.0,0.0
1258,1258,0.898966070805376,0.9,1.0,292.0,892.0,1.0,466.0,1,0.0,1.0
1259,1259,0.20466173480682015,0.2,1.0,466.0,607.0,0.0,2557.0,0,0.0,0.0
1260,1260,-0.7218025049989185,-0.7,0.0,305.0,549.0,0.0,336.0,1,0.0,0.0
1261,1261,0.4330862974085473,0.4,0.0,253.0,698.0,0.0,4049.0,1,1.0,1.0
1262,1262,-0.7401816770101224,-0.7,1.0,481.0,714.0,1.0,945.0,1,1.0,0.0
1263,1263,-0.3084284856134595,-0.3,1.0,452.0,821.0,1.0,1317.0,1,1.0,0.0
1264,1264,0.32753336412341805,0.3,1.0,342.0,748.0,1.0,3910.0,1,0.0,1.0
1265,1265,-0.23593147184940322,-0.2,1.0,404.0,768.0,1.0,3828.0,1,1.0,0.0
1266,1266,0.2545256531723653,0.3,1.0,418.0,516.0,0.0,-894.0,0,0.0,0.0
1267,1267,0.6799849757257804,0.7,0.0,329.0,667.0,0.0,-976.0,1,1.0,1.0
1268,1268,0.24158157262218072,0.2,0.0,470.0,750.0,1.0,3780.0,0,1.0,0.0
1269,1269,-0.25090530159419044,-0.3,1.0,307.0,690.0,1.0,4003.0,1,1.0,0.0
1270,1270,-0.09580223576284097,-0.1,1.0,453.0,710.0,1.0,3837.0,1,1.0,0.0
1271,1271,-0.13513288268753043,-0.1,0.0,437.0,515.0,0.0,4048.0,1,0.0,0.0
1272,1272,0.5119888083923595,0.5,0.0,255.0,886.0,0.0,3859.0,1,1.0,1.0
1273,1273,0.7491982978373154,0.7,0.0,278.0,715.0,0.0,4007.0,1,1.0,1.0
1274,1274,0.28896791863068183,0.3,0.0,260.0,622.0,0.0,1018.0,1,1.0,1.0
1275,1275,0.21928218889734674,0.2,0.0,301.0,962.0,1.0,3737.0,0,1.0,0.0
1276,1276,0.5110236771186482,0.5,1.0,365.0,643.0,1.0,782.0,1,0.0,1.0
1277,1277,-0.7008940516656911,-0.7,0.0,432.0,657.0,0.0,971.0,1,0.0,0.0
1278,1278,0.8916199910511399,0.9,0.0,402.0,792.0,0.0,316.0,1,1.0,1.0
1279,1279,0.6280340603567968,0.6,0.0,337.0,715.0,0.0,588.0,1,1.0,1.0
1280,1280,0.6366080695425665,0.6,1.0,361.0,631.0,0.0,-942.0,0,0.0,0.0
1281,1281,-0.0379366238211013,-0.0,0.0,257.0,719.0,1.0,4024.0,0,0.0,1.0
1282,1282,0.477485071241997,0.5,1.0,370.0,885.0,1.0,3105.0,1,0.0,1.0
1283,1283,-0.09388521151370954,-0.1,1.0,265.0,544.0,1.0,4191.0,1,1.0,0.0
1284,1284,-0.5828815628486426,-0.6,0.0,401.0,921.0,0.0,768.0,1,0.0,0.0
1285,1285,-0.1606964229192145,-0.2,0.0,257.0,751.0,0.0,1752.0,1,0.0,0.0
1286,1286,0.03708931360129453,0.0,0.0,384.0,846.0,1.0,3770.0,0,1.0,0.0
1287,1287,-0.13048822580760855,-0.1,0.0,330.0,722.0,0.0,-62.0,1,0.0,0.0
1288,1288,-0.09665998477159399,-0.1,0.0,261.0,905.0,0.0,2854.0,1,0.0,0.0
1289,1289,-0.7817588202741166,-0.8,1.0,425.0,904.0,1.0,1391.0,1,1.0,0.0
1290,1290,-0.11848272391581616,-0.1,0.0,493.0,858.0,1.0,-1231.0,0,0.0,1.0
1291,1291,-0.2769001017587329,-0.3,0.0,256.0,643.0,0.0,1731.0,1,0.0,0.0
1292,1292,0.6427200014194691,0.6,0.0,468.0,587.0,0.0,1675.0,1,1.0,1.0
1293,1293,0.12881064180435364,0.1,0.0,462.0,809.0,0.0,-1201.0,1,1.0,1.0
1294,1294,0.7201205743596174,0.7,1.0,477.0,541.0,1.0,802.0,1,0.0,1.0
1295,1295,-0.7894739318907635,-0.8,1.0,384.0,759.0,1.0,1207.0,1,1.0,0.0
1296,1296,-0.10847615410824274,-0.1,1.0,477.0,536.0,1.0,2277.0,1,1.0,0.0
1297,1297,-0.41512620812190926,-0.4,1.0,484.0,576.0,0.0,-1040.0,0,1.0,1.0
1298,1298,0.2738030533644641,0.3,1.0,434.0,673.0,1.0,-1087.0,1,0.0,1.0
1299,1299,-0.4673633440337585,-0.5,1.0,365.0,888.0,1.0,3747.0,1,1.0,0.0
1300,1300,-0.2350974541770937,-0.2,1.0,407.0,966.0,0.0,-1343.0,0,1.0,1.0
1301,1301,-0.5335168569831696,-0.5,1.0,460.0,500.0,1.0,4040.0,1,1.0,0.0
1302,1302,0.05221719955530624,0.1,1.0,364.0,543.0,0.0,4093.0,0,0.0,0.0
1303,1303,-0.028957799615400792,-0.0,0.0,305.0,715.0,0.0,-910.0,1,0.0,0.0
1304,1304,0.09538046827970215,0.1,1.0,299.0,808.0,0.0,-1067.0,0,0.0,0.0
1305,1305,0.647390493272399,0.6,0.0,366.0,593.0,0.0,-879.0,1,1.0,1.0
1306,1306,-0.06268108818184859,-0.1,0.0,457.0,602.0,0.0,-1009.0,1,0.0,0.0
1307,1307,0.8823989930531185,0.9,1.0,419.0,711.0,0.0,-1070.0,0,0.0,0.0
1308,1308,-0.5067382046783608,-0.5,1.0,325.0,653.0,1.0,4022.0,1,1.0,0.0
1309,1309,-0.19055262847231458,-0.2,1.0,355.0,967.0,1.0,-1302.0,1,1.0,0.0
1310,1310,-0.31646251971767736,-0.3,0.0,330.0,892.0,0.0,3778.0,1,0.0,0.0
1311,1311,-0.2741274800340624,-0.3,0.0,466.0,841.0,0.0,623.0,1,0.0,0.0
1312,1312,-0.37651887577134124,-0.4,0.0,306.0,763.0,0.0,1041.0,1,0.0,0.0
1313,1313,-0.404366792736541,-0.4,0.0,255.0,736.0,0.0,-951.0,1,0.0,0.0
1314,1314,-0.8206824582721656,-0.8,0.0,403.0,901.0,0.0,756.0,1,0.0,0.0
1315,1315,-0.6819480894074197,-0.7,0.0,488.0,851.0,0.0,3661.0,1,0.0,0.0
1316,1316,-0.13843834190432414,-0.1,0.0,332.0,532.0,0.0,826.0,1,0.0,0.0
1317,1317,-0.16481529639279613,-0.2,1.0,326.0,842.0,1.0,3832.0,1,1.0,0.0
1318,1318,0.8818002330605533,0.9,0.0,355.0,988.0,1.0,-73.0,0,1.0,0.0
1319,1319,-0.11805686431088425,-0.1,1.0,393.0,703.0,1.0,3904.0,1,1.0,0.0
1320,1320,0.882693110245173,0.9,1.0,448.0,902.0,1.0,2070.0,1,0.0,1.0
1321,1321,0.8764104490686174,0.9,1.0,350.0,850.0,0.0,-1180.0,0,0.0,0.0
1322,1322,-0.41749399330250014,-0.4,1.0,261.0,952.0,1.0,3787.0,1,1.0,0.0
1323,1323,0.3672831855492592,0.4,0.0,451.0,987.0,0.0,-1428.0,1,1.0,1.0
1324,1324,-0.34372799031073586,-0.3,1.0,279.0,528.0,1.0,4193.0,1,1.0,0.0
1325,1325,0.11370032690854426,0.1,1.0,480.0,916.0,1.0,-1336.0,1,0.0,1.0
1326,1326,0.5207723549577082,0.5,1.0,397.0,728.0,1.0,145.0,1,0.0,1.0
1327,1327,-0.6669431944210964,-0.7,1.0,304.0,611.0,0.0,-35.0,0,1.0,1.0
1328,1328,-0.6248428367869343,-0.6,1.0,355.0,608.0,1.0,4037.0,1,1.0,0.0
1329,1329,-0.2755082021955455,-0.3,0.0,300.0,941.0,1.0,3759.0,0,0.0,1.0
1330,1330,0.8582265883061452,0.9,0.0,337.0,962.0,0.0,401.0,1,1.0,1.0
1331,1331,-0.6662657450429983,-0.7,1.0,286.0,997.0,0.0,-1273.0,0,1.0,1.0
1332,1332,0.48544969278129757,0.5,0.0,250.0,920.0,1.0,3830.0,0,1.0,0.0
1333,1333,-0.4588302718325236,-0.5,0.0,493.0,916.0,0.0,811.0,1,0.0,0.0
1334,1334,0.12108820070898985,0.1,1.0,498.0,965.0,0.0,-1443.0,0,0.0,0.0
1335,1335,-0.35307935062187645,-0.4,1.0,409.0,550.0,1.0,4041.0,1,1.0,0.0
1336,1336,-0.030834216607251275,-0.0,1.0,470.0,983.0,1.0,3547.0,1,1.0,0.0
1337,1337,-0.7468884119765337,-0.7,0.0,438.0,511.0,0.0,1051.0,1,0.0,0.0
1338,1338,-0.5707319911054229,-0.6,0.0,318.0,507.0,0.0,1305.0,1,0.0,0.0
1339,1339,0.06784795888000783,0.1,1.0,418.0,949.0,1.0,3633.0,1,0.0,1.0
1340,1340,0.8947229143825858,0.9,1.0,252.0,963.0,1.0,2675.0,1,0.0,1.0
1341,1341,0.5676573076424182,0.6,0.0,485.0,964.0,0.0,-1409.0,1,1.0,1.0
1342,1342,0.7511069394583215,0.8,1.0,330.0,926.0,1.0,3274.0,1,0.0,1.0
1343,1343,-0.5729823337075777,-0.6,1.0,319.0,613.0,1.0,3028.0,1,1.0,0.0
1344,1344,-0.6458591629888377,-0.6,1.0,368.0,608.0,1.0,1914.0,1,1.0,0.0
1345,1345,0.7775457816295076,0.8,0.0,278.0,875.0,0.0,187.0,1,1.0,1.0
1346,1346,-0.1688165098764569,-0.2,0.0,281.0,754.0,0.0,385.0,1,0.0,0.0
1347,1347,0.53012708206945,0.5,1.0,470.0,704.0,1.0,1906.0,1,0.0,1.0
1348,1348,0.7919676705940274,0.8,0.0,263.0,686.0,0.0,371.0,1,1.0,1.0
1349,1349,0.031178236050946828,0.0,0.0,358.0,695.0,1.0,2737.0,0,1.0,0.0
1350,1350,0.43423722436166,0.4,1.0,258.0,756.0,1.0,3986.0,1,0.0,1.0
1351,1351,-0.8713347561037859,-0.9,1.0,453.0,540.0,0.0,-863.0,0,1.0,1.0
1352,1352,0.429741185446478,0.4,1.0,281.0,743.0,1.0,3126.0,1,0.0,1.0
1353,1353,0.8662814034778424,0.9,1.0,451.0,914.0,1.0,1625.0,1,0.0,1.0
1354,1354,-0.12690383724988963,-0.1,0.0,300.0,658.0,0.0,-908.0,1,0.0,0.0
1355,1355,-0.7259195654384532,-0.7,0.0,454.0,958.0,0.0,-1392.0,1,0.0,0.0
1356,1356,0.6236705315016428,0.6,0.0,412.0,703.0,1.0,-1095.0,0,1.0,0.0
1357,1357,0.8041931986708989,0.8,0.0,411.0,503.0,0.0,746.0,1,1.0,1.0
1358,1358,0.5384146583401593,0.5,1.0,347.0,931.0,1.0,1562.0,1,0.0,1.0
1359,1359,0.774784192760117,0.8,1.0,497.0,579.0,0.0,-1046.0,0,0.0,0.0
1360,1360,-0.21625395834972205,-0.2,1.0,340.0,747.0,1.0,3913.0,1,1.0,0.0
1361,1361,-0.30153565974224206,-0.3,1.0,376.0,765.0,1.0,-291.0,1,1.0,0.0
1362,1362,-0.6224248492467328,-0.6,1.0,330.0,911.0,0.0,-1171.0,0,1.0,1.0
1363,1363,-0.39376422649679943,-0.4,0.0,309.0,853.0,0.0,-1152.0,1,0.0,0.0
1364,1364,0.3735004867823589,0.4,1.0,303.0,898.0,1.0,1859.0,1,0.0,1.0
1365,1365,-0.3978299456201917,-0.4,1.0,380.0,862.0,1.0,-1222.0,1,1.0,0.0
1366,1366,-0.860084237127975,-0.9,0.0,414.0,696.0,0.0,1330.0,1,0.0,0.0
1367,1367,0.07249315168921966,0.1,1.0,423.0,578.0,0.0,-171.0,0,0.0,0.0
1368,1368,0.23150129709818967,0.2,0.0,407.0,737.0,0.0,986.0,1,1.0,1.0
1369,1369,0.2736716483905882,0.3,0.0,388.0,753.0,1.0,3859.0,0,1.0,0.0
1370,1370,0.7831976392185754,0.8,0.0,421.0,947.0,0.0,3102.0,1,1.0,1.0
1371,1371,-0.4273172611174352,-0.4,1.0,410.0,939.0,1.0,1171.0,1,1.0,0.0
1372,1372,-0.7891496678165945,-0.8,0.0,367.0,833.0,0.0,2090.0,1,0.0,0.0
1373,1373,-0.6857225648962071,-0.7,1.0,303.0,629.0,1.0,-902.0,1,1.0,0.0
1374,1374,-0.7826027664650413,-0.8,0.0,319.0,844.0,0.0,3687.0,1,0.0,0.0
1375,1375,0.49089201102782287,0.5,1.0,261.0,967.0,1.0,3602.0,1,0.0,1.0
1376,1376,0.7621841716935659,0.8,0.0,453.0,750.0,0.0,367.0,1,1.0,1.0
1377,1377,-0.08505419730853636,-0.1,0.0,386.0,592.0,0.0,4022.0,1,0.0,0.0
1378,1378,0.6840760848090922,0.7,0.0,473.0,682.0,0.0,-1065.0,1,1.0,1.0
1379,1379,0.4474959514252196,0.4,1.0,309.0,750.0,1.0,401.0,1,0.0,1.0
1380,1380,0.8231657133695517,0.8,0.0,360.0,888.0,0.0,-1198.0,1,1.0,1.0
1381,1381,-0.649495419476076,-0.6,1.0,288.0,546.0,1.0,4166.0,1,1.0,0.0
1382,1382,-0.016045435650917095,-0.0,0.0,352.0,927.0,0.0,581.0,1,0.0,0.0
1383,1383,-0.7066563426306294,-0.7,0.0,315.0,596.0,0.0,719.0,1,0.0,0.0
1384,1384,0.887344907757139,0.9,1.0,251.0,978.0,0.0,-1169.0,0,0.0,0.0
1385,1385,-0.3142744189209479,-0.3,1.0,477.0,546.0,1.0,2417.0,1,1.0,0.0
1386,1386,0.6592816106306801,0.7,0.0,394.0,802.0,0.0,2144.0,1,1.0,1.0
1387,1387,-0.04022803041698653,-0.0,0.0,328.0,524.0,0.0,2308.0,1,0.0,0.0
1388,1388,0.5344389884637305,0.5,0.0,489.0,958.0,1.0,3553.0,0,1.0,0.0
1389,1389,0.2625398583457311,0.3,1.0,392.0,533.0,1.0,4075.0,1,0.0,1.0
1390,1390,-0.5435924666015932,-0.5,0.0,396.0,673.0,0.0,-1039.0,1,0.0,0.0
1391,1391,-0.8922286969753453,-0.9,0.0,456.0,585.0,1.0,-1021.0,0,0.0,1.0
1392,1392,-0.8828674442587225,-0.9,0.0,490.0,836.0,0.0,304.0,1,0.0,0.0
1393,1393,0.40566000165144145,0.4,0.0,499.0,910.0,1.0,-509.0,0,1.0,0.0
1394,1394,-0.7347020477982354,-0.7,1.0,292.0,840.0,1.0,3868.0,1,1.0,0.0
1395,1395,0.4668897742135808,0.5,1.0,468.0,738.0,0.0,-16.0,0,0.0,0.0
1396,1396,0.07991986827818254,0.1,0.0,481.0,789.0,1.0,3730.0,0,1.0,0.0
1397,1397,0.6746621312598443,0.7,1.0,273.0,892.0,0.0,-105.0,0,0.0,0.0
1398,1398,0.10138741698494613,0.1,1.0,262.0,754.0,0.0,3984.0,0,0.0,0.0
1399,1399,-0.6451638236877633,-0.6,1.0,272.0,579.0,1.0,1539.0,1,1.0,0.0
1400,1400,0.1042662863604028,0.1,0.0,329.0,795.0,1.0,3876.0,0,1.0,0.0
1401,1401,-0.6041198016497639,-0.6,0.0,414.0,928.0,0.0,-1272.0,1,0.0,0.0
1402,1402,-0.6127377871601181,-0.6,1.0,431.0,863.0,1.0,3706.0,1,1.0,0.0
1403,1403,0.84585420412608,0.8,0.0,288.0,584.0,0.0,668.0,1,1.0,1.0
1404,1404,-0.6857151010926373,-0.7,1.0,479.0,580.0,1.0,3611.0,1,1.0,0.0
1405,1405,-0.17167414296438788,-0.2,1.0,379.0,687.0,1.0,3934.0,1,1.0,0.0
1406,1406,-0.3176414903498531,-0.3,0.0,280.0,502.0,0.0,4218.0,1,0.0,0.0
1407,1407,0.7901405853339715,0.8,0.0,435.0,560.0,0.0,855.0,1,1.0,1.0
1408,1408,0.1387932085255087,0.1,0.0,292.0,784.0,1.0,3924.0,0,1.0,0.0
1409,1409,-0.40745269044512733,-0.4,1.0,405.0,739.0,1.0,196.0,1,1.0,0.0
1410,1410,0.17445070306348398,0.2,0.0,336.0,655.0,1.0,3259.0,0,1.0,0.0
1411,1411,0.23478312514406918,0.2,1.0,406.0,605.0,0.0,-991.0,0,0.0,0.0
1412,1412,0.7647588304804017,0.8,1.0,300.0,564.0,1.0,1316.0,1,0.0,1.0
1413,1413,-0.11759562803758039,-0.1,0.0,413.0,819.0,0.0,3768.0,1,0.0,0.0
1414,1414,-0.743400415648964,-0.7,0.0,448.0,672.0,1.0,-1070.0,0,0.0,1.0
1415,1415,0.7705220215533998,0.8,0.0,257.0,760.0,0.0,1053.0,1,1.0,1.0
1416,1416,0.3924742928367605,0.4,0.0,371.0,829.0,0.0,-1170.0,1,1.0,1.0
1417,1417,0.7142683781763838,0.7,1.0,458.0,952.0,1.0,710.0,1,0.0,1.0
1418,1418,0.23257575132858566,0.2,1.0,304.0,682.0,0.0,-916.0,0,0.0,0.0
1419,1419,-0.7661881011435204,-0.8,1.0,477.0,614.0,1.0,3909.0,1,1.0,0.0
1420,1420,0.6799801768024981,0.7,0.0,285.0,748.0,1.0,-973.0,0,1.0,0.0
1421,1421,0.568861301697461,0.6,0.0,499.0,568.0,0.0,3893.0,1,1.0,1.0
1422,1422,-0.6639712479983048,-0.7,0.0,280.0,715.0,0.0,815.0,1,0.0,0.0
1423,1423,0.6726814652451022,0.7,1.0,323.0,668.0,0.0,-891.0,0,0.0,0.0
1424,1424,0.40209425453780645,0.4,0.0,308.0,587.0,0.0,715.0,1,1.0,1.0
1425,1425,0.369640727732658,0.4,1.0,344.0,631.0,0.0,-925.0,0,0.0,0.0
1426,1426,-0.20841505745768685,-0.2,0.0,481.0,842.0,0.0,3137.0,1,0.0,0.0
1427,1427,0.7784991514926517,0.8,1.0,263.0,657.0,1.0,290.0,1,0.0,1.0
1428,1428,-0.4062263020247676,-0.4,0.0,357.0,950.0,0.0,1483.0,1,0.0,0.0
1429,1429,-0.7817217665802492,-0.8,0.0,316.0,956.0,0.0,3728.0,1,0.0,0.0
1430,1430,-0.302556484229231,-0.3,0.0,380.0,697.0,0.0,3513.0,1,0.0,0.0
1431,1431,-0.6784776259117079,-0.7,1.0,393.0,704.0,1.0,-1077.0,1,1.0,0.0
