,trial,coherence,coherence_bin,correct_side,target_onset,checker_onset,decision,decision_time,correct_decision,g0,gSlope
0,0,-0.7718610332144229,-0.8,1,414.0,768.0,1.0,98.0,1,0.30098413529853796,0.0
1,1,0.32487591660765114,0.3,0,446.0,601.0,0.0,113.0,1,0.292087324211448,0.0
2,2,-0.29371015021585367,-0.3,1,455.0,961.0,1.0,254.0,1,0.21427512809314153,0.0
3,3,-0.489647944538558,-0.5,1,300.0,840.0,1.0,150.0,1,0.32309469849538525,0.0
4,4,0.9622235257944556,1.0,0,432.0,543.0,0.0,85.0,1,0.44233362620898475,0.0
5,5,0.3308578534096658,0.3,0,476.0,761.0,0.0,203.0,1,0.5394289601343881,0.0
6,6,0.42454903156705326,0.4,0,331.0,515.0,0.0,244.0,1,0.7752761376030864,0.0
7,7,0.009048896872659196,0.0,0,364.0,602.0,0.0,344.0,1,0.9005884193241304,0.0
8,8,-0.9412889258450912,-0.9,1,360.0,542.0,1.0,128.0,1,0.4972103692205908,0.0
9,9,-0.9704942222806099,-1.0,1,316.0,680.0,1.0,144.0,1,0.9956509129838274,0.0
10,10,-0.04448392048823946,-0.0,1,313.0,979.0,1.0,128.0,1,0.35708271600317765,0.0
11,11,-0.8846335582417306,-0.9,1,433.0,847.0,1.0,60.0,1,0.8084814647356243,0.0
12,12,0.5312443419863897,0.5,0,386.0,728.0,0.0,96.0,1,0.6323366447958756,0.0
13,13,-0.18384847411646343,-0.2,1,374.0,831.0,1.0,245.0,1,0.6237572470635703,0.0
14,14,0.15597943694695382,0.2,0,465.0,550.0,0.0,885.0,1,0.20805176313182405,0.0
15,15,0.2804767294035704,0.3,0,363.0,627.0,0.0,150.0,1,0.8095544887308149,0.0
16,16,-0.5008570272038726,-0.5,1,318.0,564.0,1.0,198.0,1,0.8851619336609111,0.0
17,17,0.46235558001529853,0.5,0,281.0,877.0,0.0,202.0,1,0.2552349901586078,0.0
18,18,-0.6218552528971346,-0.6,1,282.0,561.0,1.0,197.0,1,0.21964316461099798,0.0
19,19,-0.5749406468070326,-0.6,1,305.0,617.0,1.0,68.0,1,0.6669304590111328,0.0
20,20,-0.36587489395553807,-0.4,1,323.0,653.0,1.0,204.0,1,0.5623069228415771,0.0
21,21,-0.19928972707005888,-0.2,1,390.0,523.0,1.0,227.0,1,0.3549558111804747,0.0
22,22,0.1959034719789874,0.2,0,347.0,777.0,0.0,136.0,1,0.2924176731789131,0.0
23,23,0.8657821136884294,0.9,0,464.0,656.0,0.0,60.0,1,0.8164680371312006,0.0
24,24,-0.5686904709885816,-0.6,1,375.0,734.0,1.0,141.0,1,0.7872898991176683,0.0
25,25,-0.1984424194087986,-0.2,1,449.0,506.0,1.0,235.0,1,0.4187196188796416,0.0
26,26,-0.8391457576942678,-0.8,1,330.0,844.0,1.0,186.0,1,0.9409206792552598,0.0
27,27,-0.8133540161284696,-0.8,1,439.0,706.0,1.0,215.0,1,0.7772711272926932,0.0
28,28,0.11132427357132957,0.1,0,290.0,746.0,0.0,384.0,1,0.8407310918114003,0.0
29,29,0.15319236653758983,0.2,0,432.0,978.0,0.0,210.0,1,0.3908310817398092,0.0
30,30,0.6022298661882812,0.6,0,418.0,719.0,0.0,163.0,1,0.39550450497429435,0.0
31,31,-0.8269280009934059,-0.8,1,303.0,502.0,1.0,105.0,1,0.37622390990085,0.0
32,32,0.7176814847453432,0.7,0,424.0,790.0,0.0,56.0,1,0.28655666675362335,0.0
33,33,-0.968232685705513,-1.0,1,285.0,790.0,1.0,75.0,1,0.883076377125815,0.0
34,34,0.9652861003799631,1.0,0,369.0,873.0,0.0,108.0,1,0.35340897266882054,0.0
35,35,-0.13903980622722711,-0.1,1,286.0,574.0,0.0,390.0,0,0.7500803619272741,0.0
36,36,-0.15329404308758598,-0.2,1,360.0,958.0,1.0,152.0,1,0.37135337030322235,0.0
37,37,0.524936658755331,0.5,0,367.0,804.0,0.0,109.0,1,0.2585077905501507,0.0
38,38,-0.9986891133695859,-1.0,1,480.0,767.0,1.0,113.0,1,0.18284123265795876,0.0
39,39,-0.6644180239992028,-0.7,1,335.0,749.0,1.0,146.0,1,0.6238813812749058,0.0
40,40,-0.5122786841082989,-0.5,1,465.0,507.0,1.0,88.0,1,0.28220867310161457,0.0
41,41,0.7384504081404315,0.7,0,421.0,841.0,0.0,88.0,1,0.4777274250047788,0.0
42,42,0.7233477946547782,0.7,0,442.0,694.0,0.0,164.0,1,0.8141227396491852,0.0
43,43,0.26755490618634803,0.3,0,386.0,954.0,0.0,180.0,1,0.466700961393137,0.0
44,44,0.28164708048302667,0.3,0,370.0,794.0,0.0,186.0,1,0.25443603989715535,0.0
45,45,-0.5898092476539873,-0.6,1,345.0,951.0,1.0,74.0,1,0.22619058610470374,0.0
46,46,0.3287439520068456,0.3,0,464.0,930.0,0.0,3606.0,1,0.10055848641098965,0.0
47,47,0.8468772093543224,0.8,0,289.0,619.0,0.0,92.0,1,0.3757647671681241,0.0
48,48,-0.4482580857387415,-0.4,1,383.0,624.0,1.0,233.0,1,0.7296454590025069,0.0
49,49,-0.5833422581998973,-0.6,1,292.0,721.0,1.0,97.0,1,0.6428864212569194,0.0
50,50,0.4602936794371333,0.5,0,293.0,986.0,0.0,141.0,1,0.5829488537014271,0.0
51,51,-0.6559447679707731,-0.7,1,313.0,887.0,1.0,180.0,1,0.17172201892120503,0.0
52,52,-0.3014540548770741,-0.3,1,477.0,855.0,0.0,148.0,0,0.9165237216630399,0.0
53,53,0.1743772949790252,0.2,0,345.0,518.0,0.0,87.0,1,0.6359212326890751,0.0
54,54,-0.9051198074788833,-0.9,1,448.0,794.0,1.0,108.0,1,0.8997249101224948,0.0
55,55,-0.10707477337528526,-0.1,1,392.0,794.0,1.0,464.0,1,0.8888985975607235,0.0
56,56,-0.7986016200009967,-0.8,1,452.0,839.0,1.0,69.0,1,0.34078550989247536,0.0
57,57,-0.4905208040242972,-0.5,1,382.0,535.0,1.0,183.0,1,0.8263441977514454,0.0
58,58,-0.02139678320373961,-0.0,1,428.0,648.0,0.0,224.0,0,0.4554496796291063,0.0
59,59,0.48966162731591956,0.5,0,474.0,583.0,0.0,153.0,1,0.7402049319956248,0.0
60,60,0.7839010964251827,0.8,0,400.0,749.0,0.0,71.0,1,0.3454878139186739,0.0
61,61,0.5090308334384761,0.5,0,397.0,818.0,0.0,255.0,1,0.8367156957099299,0.0
62,62,-0.7011235774057547,-0.7,1,481.0,656.0,1.0,273.0,1,0.958455968934667,0.0
63,63,-0.4903489743350564,-0.5,1,420.0,844.0,1.0,186.0,1,0.6269101886447125,0.0
64,64,-0.5256704457424419,-0.5,1,368.0,718.0,1.0,244.0,1,0.16414045106177605,0.0
65,65,-0.46619159664391785,-0.5,1,480.0,942.0,1.0,3578.0,1,0.1242525521754238,0.0
66,66,0.7164422808682691,0.7,0,458.0,791.0,0.0,121.0,1,0.5807407798498485,0.0
67,67,-0.6122936716525116,-0.6,1,428.0,965.0,1.0,77.0,1,0.32471812664602806,0.0
68,68,0.8830771374522384,0.9,0,250.0,755.0,0.0,95.0,1,0.4313429850951852,0.0
69,69,0.11908966712841584,0.1,0,392.0,959.0,0.0,209.0,1,0.5317752549930106,0.0
70,70,-0.7615490112331906,-0.8,1,356.0,716.0,1.0,78.0,1,0.33100693387257196,0.0
71,71,-0.28336314531768214,-0.3,1,288.0,666.0,1.0,176.0,1,0.7525911220848902,0.0
72,72,0.3932455828091235,0.4,0,364.0,731.0,0.0,195.0,1,0.5889809728791745,0.0
73,73,0.9316901123225789,0.9,0,367.0,625.0,0.0,98.0,1,0.7253118937778933,0.0
74,74,-0.034650917350366406,-0.0,1,277.0,658.0,1.0,545.0,1,0.8112536808496187,0.0
75,75,0.37799135454266275,0.4,0,470.0,582.0,0.0,388.0,1,0.6344094628625007,0.0
76,76,0.781001928444577,0.8,0,409.0,789.0,0.0,72.0,1,0.1811288806046745,0.0
77,77,0.4227154056154283,0.4,0,350.0,867.0,0.0,113.0,1,0.3977457908683708,0.0
78,78,-0.566378398986942,-0.6,1,451.0,734.0,1.0,235.0,1,0.7848967443819386,0.0
79,79,-0.37589822014506136,-0.4,1,364.0,953.0,1.0,133.0,1,0.4539826676790416,0.0
80,80,-0.36568183802862864,-0.4,1,308.0,963.0,1.0,139.0,1,0.21548073766910714,0.0
81,81,-0.5005351628566312,-0.5,1,332.0,554.0,1.0,64.0,1,0.40202908005237614,0.0
82,82,0.19572560201684364,0.2,0,290.0,616.0,0.0,164.0,1,0.5814020425263783,0.0
83,83,0.11175779054649038,0.1,0,499.0,586.0,0.0,175.0,1,0.5353576091284278,0.0
84,84,0.9888296746140444,1.0,0,290.0,577.0,0.0,143.0,1,0.9262201617392106,0.0
85,85,-0.9692569763196108,-1.0,1,251.0,545.0,1.0,134.0,1,0.9184331233068765,0.0
86,86,-0.29948558620332766,-0.3,1,254.0,822.0,1.0,134.0,1,0.3547496443312149,0.0
87,87,0.3866932951147264,0.4,0,481.0,885.0,0.0,144.0,1,0.3593693589732272,0.0
88,88,-0.25167429701002275,-0.3,1,373.0,528.0,1.0,219.0,1,0.23508065948040055,0.0
89,89,0.9301798615672838,0.9,0,444.0,874.0,0.0,82.0,1,0.24207318294051983,0.0
90,90,0.9194907194859225,0.9,0,302.0,909.0,0.0,209.0,1,0.9525393157317228,0.0
91,91,-0.2280157332527155,-0.2,1,369.0,831.0,1.0,130.0,1,0.4030061011687327,0.0
92,92,-0.8393403945695941,-0.8,1,448.0,517.0,1.0,145.0,1,0.8540934664622417,0.0
93,93,-0.8787666596377086,-0.9,1,461.0,552.0,1.0,77.0,1,0.18516387674699497,0.0
94,94,0.5211823894672187,0.5,0,363.0,756.0,0.0,201.0,1,0.6428577867912707,0.0
95,95,0.3538055091033978,0.4,0,410.0,550.0,0.0,130.0,1,0.47677829877762123,0.0
96,96,-0.8351784621510934,-0.8,1,339.0,864.0,1.0,117.0,1,0.7664851022042972,0.0
97,97,-0.6699681362425103,-0.7,1,328.0,527.0,1.0,205.0,1,0.7904966517649993,0.0
98,98,0.9591071284416479,1.0,0,494.0,542.0,0.0,134.0,1,0.44427547301829173,0.0
99,99,0.9969551963193617,1.0,0,372.0,570.0,0.0,198.0,1,0.7174359166011689,0.0
100,100,-0.01995293712952484,-0.0,1,479.0,715.0,0.0,3806.0,0,0.13278137124531472,0.0
101,101,-0.23972116567420043,-0.2,1,315.0,816.0,1.0,319.0,1,0.9665534839026074,0.0
102,102,-0.7996998951359378,-0.8,1,345.0,565.0,1.0,510.0,1,0.9751121602822971,0.0
103,103,-0.5538959316148562,-0.6,1,344.0,742.0,1.0,144.0,1,0.3842375784019144,0.0
104,104,-0.19351336703617283,-0.2,1,457.0,607.0,1.0,156.0,1,0.5837629740247683,0.0
105,105,0.4289340382510385,0.4,0,461.0,843.0,0.0,96.0,1,0.2727172944957219,0.0
106,106,0.33659650950722186,0.3,0,342.0,937.0,0.0,161.0,1,0.6257953886109705,0.0
107,107,-0.21066909351816543,-0.2,1,295.0,709.0,1.0,216.0,1,0.21690422892342298,0.0
108,108,-0.5112131092658672,-0.5,1,482.0,999.0,1.0,119.0,1,0.6824357224549125,0.0
109,109,0.09755296788206458,0.1,0,327.0,925.0,0.0,278.0,1,0.5448175624568483,0.0
110,110,0.49904461060184513,0.5,0,411.0,800.0,0.0,109.0,1,0.7429858819708051,0.0
111,111,-0.8089900199864342,-0.8,1,499.0,671.0,1.0,170.0,1,0.6764925435774738,0.0
112,112,0.1697398654728779,0.2,0,293.0,510.0,0.0,137.0,1,0.5120442680072952,0.0
113,113,0.23269851145421883,0.2,0,410.0,842.0,0.0,318.0,1,0.8594562326095665,0.0
114,114,-0.11386009671961705,-0.1,1,480.0,830.0,1.0,170.0,1,0.893338748080646,0.0
115,115,-0.779739017313384,-0.8,1,395.0,966.0,1.0,1189.0,1,0.1187372267215376,0.0
116,116,-0.32147912826840885,-0.3,1,389.0,649.0,1.0,152.0,1,0.3387843170565917,0.0
117,117,-0.8719822725028208,-0.9,1,321.0,890.0,1.0,109.0,1,0.9232672978221999,0.0
118,118,0.2868271642348039,0.3,0,469.0,956.0,0.0,235.0,1,0.7701941806410741,0.0
119,119,-0.08324560513839452,-0.1,1,493.0,752.0,1.0,265.0,1,0.32774124952231987,0.0
120,120,-0.09888408423499029,-0.1,1,391.0,968.0,1.0,181.0,1,0.5609737117817004,0.0
121,121,0.6335332255439499,0.6,0,397.0,867.0,0.0,196.0,1,0.6940121486282744,0.0
122,122,-0.6169519076928196,-0.6,1,360.0,715.0,1.0,115.0,1,0.9124214118506058,0.0
123,123,0.6122007623663963,0.6,0,395.0,501.0,0.0,264.0,1,0.647195014281266,0.0
124,124,0.6709180443777643,0.7,0,280.0,532.0,0.0,98.0,1,0.32062806171160485,0.0
125,125,-0.4762181506814933,-0.5,1,251.0,747.0,1.0,102.0,1,0.6056280165273011,0.0
126,126,0.3731069305281234,0.4,0,453.0,848.0,0.0,409.0,1,0.9902837085529391,0.0
127,127,-0.47848490500606844,-0.5,1,387.0,523.0,1.0,180.0,1,0.6031608151606319,0.0
128,128,-0.5441187239819834,-0.5,1,300.0,894.0,1.0,166.0,1,0.8579271464749985,0.0
129,129,-0.09627300028685704,-0.1,1,385.0,769.0,1.0,946.0,1,0.18297280682824382,0.0
130,130,0.43467282505888716,0.4,0,417.0,785.0,0.0,208.0,1,0.6795829997277988,0.0
131,131,0.5688990194700363,0.6,0,282.0,878.0,0.0,160.0,1,0.45846361381335066,0.0
132,132,-0.2212861262264132,-0.2,1,325.0,848.0,1.0,107.0,1,0.36617832451934196,0.0
133,133,0.6420660829810827,0.6,0,456.0,602.0,0.0,282.0,1,0.16508868570038013,0.0
134,134,-0.11494998205692308,-0.1,1,465.0,520.0,1.0,4015.0,1,0.1578972860777262,0.0
135,135,0.14824480269700913,0.1,0,350.0,582.0,0.0,158.0,1,0.37377811221389146,0.0
136,136,0.16166852661937914,0.2,0,368.0,724.0,0.0,418.0,1,0.9540529635218169,0.0
137,137,0.8247443398473584,0.8,0,316.0,757.0,0.0,127.0,1,0.97948602464622,0.0
138,138,-0.3103568795107634,-0.3,1,479.0,621.0,1.0,170.0,1,0.41919852184303186,0.0
139,139,-0.7453946709423815,-0.7,1,428.0,918.0,1.0,204.0,1,0.6710101177682579,0.0
140,140,0.030026154933210814,0.0,0,358.0,566.0,0.0,196.0,1,0.2729223646513473,0.0
141,141,0.9001305205439256,0.9,0,436.0,550.0,0.0,74.0,1,0.8325317595683909,0.0
142,142,-0.4986230034661103,-0.5,1,467.0,774.0,1.0,209.0,1,0.1583131559806881,0.0
143,143,-0.03972462097714469,-0.0,1,348.0,939.0,1.0,3713.0,1,0.13562651703430925,0.0
144,144,0.6971566801324274,0.7,0,462.0,789.0,0.0,159.0,1,0.7305809644332013,0.0
145,145,0.40177276739351786,0.4,0,397.0,833.0,0.0,110.0,1,0.47897810907190774,0.0
146,146,0.8524983822040504,0.9,0,363.0,863.0,0.0,204.0,1,0.9127276166557265,0.0
147,147,-0.8131058473492698,-0.8,1,372.0,997.0,1.0,191.0,1,0.13632937300003567,0.0
148,148,-0.41200033334203656,-0.4,1,366.0,785.0,1.0,99.0,1,0.5231004413265105,0.0
149,149,-0.6779060602881475,-0.7,1,425.0,627.0,1.0,218.0,1,0.816063404902018,0.0
150,150,-0.6807983825155899,-0.7,1,255.0,916.0,1.0,149.0,1,0.48756167979527454,0.0
151,151,0.30615730272773134,0.3,0,286.0,553.0,0.0,131.0,1,0.3684422156742313,0.0
152,152,0.016340491470042462,0.0,0,308.0,834.0,0.0,258.0,1,0.3391503361496473,0.0
153,153,0.7532812519248238,0.8,0,288.0,858.0,0.0,164.0,1,0.6558028945026868,0.0
154,154,-0.6169246326425033,-0.6,1,409.0,897.0,1.0,154.0,1,0.25728236363447016,0.0
155,155,-0.6541972115885537,-0.7,1,496.0,600.0,1.0,124.0,1,0.8732568629586742,0.0
156,156,-0.3672573662126337,-0.4,1,477.0,606.0,1.0,317.0,1,0.6268152716884757,0.0
157,157,0.4285115253694649,0.4,0,363.0,633.0,0.0,194.0,1,0.7957369579568175,0.0
158,158,-0.01460834922496379,-0.0,1,333.0,729.0,1.0,418.0,1,0.8402178318625952,0.0
159,159,0.6362846725351383,0.6,0,469.0,561.0,0.0,110.0,1,0.37650023912022423,0.0
160,160,0.8700766768127939,0.9,0,366.0,900.0,0.0,44.0,1,0.5173657556553248,0.0
161,161,0.9996267071786067,1.0,0,263.0,826.0,0.0,341.0,1,0.9867293256373457,0.0
162,162,0.32673299500647524,0.3,0,463.0,740.0,0.0,197.0,1,0.7871958195412481,0.0
163,163,-0.3558867377199084,-0.4,1,316.0,860.0,1.0,194.0,1,0.7047004093967518,0.0
164,164,-0.3689851752730249,-0.4,1,385.0,934.0,1.0,361.0,1,0.6313795663493281,0.0
165,165,0.21987483981868805,0.2,0,351.0,833.0,0.0,256.0,1,0.5262000130820691,0.0
166,166,0.9903287891267847,1.0,0,440.0,840.0,0.0,130.0,1,0.7064298270019251,0.0
167,167,-0.020423907753099435,-0.0,1,410.0,504.0,0.0,186.0,0,0.3957440956628423,0.0
168,168,-0.09620261148160658,-0.1,1,347.0,664.0,0.0,339.0,0,0.6369848255251093,0.0
169,169,0.24238608401430706,0.2,0,300.0,750.0,1.0,200.0,0,0.26017272171800904,0.0
170,170,-0.43027171587145463,-0.4,1,290.0,758.0,1.0,252.0,1,0.6621051502862315,0.0
171,171,-0.7321999581144234,-0.7,1,363.0,547.0,1.0,80.0,1,0.5228104069367019,0.0
172,172,-0.9889637526847477,-1.0,1,462.0,788.0,1.0,110.0,1,0.5590278797699942,0.0
173,173,-0.9986582971904225,-1.0,1,409.0,717.0,1.0,54.0,1,0.38207272445950846,0.0
174,174,0.8268294985728228,0.8,0,474.0,924.0,0.0,92.0,1,0.42318686824417306,0.0
175,175,-0.9151445073926063,-0.9,1,478.0,942.0,1.0,110.0,1,0.5746583542267186,0.0
176,176,-0.25845218972333117,-0.3,1,291.0,854.0,1.0,105.0,1,0.7818399046935708,0.0
177,177,0.6709732014638361,0.7,0,435.0,508.0,0.0,147.0,1,0.3725723673192146,0.0
178,178,-0.6876604244461608,-0.7,1,404.0,878.0,1.0,208.0,1,0.5837411467786358,0.0
179,179,-0.05053098338454376,-0.1,1,438.0,839.0,0.0,163.0,0,0.6689664764752784,0.0
180,180,0.7576927418432313,0.8,0,458.0,711.0,0.0,111.0,1,0.2741871277363818,0.0
181,181,0.25279801597252627,0.3,0,489.0,882.0,0.0,119.0,1,0.5742533287079918,0.0
182,182,-0.24556066409913657,-0.2,1,371.0,577.0,1.0,182.0,1,0.7002999899556808,0.0
183,183,0.8801253686517907,0.9,0,276.0,877.0,0.0,327.0,1,0.7683638413774528,0.0
184,184,-0.132322652915686,-0.1,1,423.0,772.0,1.0,235.0,1,0.3237308564311257,0.0
185,185,0.6256857745066802,0.6,0,368.0,611.0,0.0,181.0,1,0.7601160074348476,0.0
186,186,0.0511779106010386,0.1,0,362.0,883.0,0.0,225.0,1,0.7991545537443445,0.0
187,187,-0.24278392982305896,-0.2,1,441.0,618.0,0.0,181.0,0,0.783605321009913,0.0
188,188,-0.9944991700795069,-1.0,1,383.0,618.0,1.0,289.0,1,0.14352985697473478,0.0
189,189,0.08871254713531074,0.1,0,485.0,646.0,1.0,369.0,0,0.6526832275015242,0.0
190,190,-0.7246629699157128,-0.7,1,340.0,556.0,1.0,204.0,1,0.22585753643401468,0.0
191,191,-0.261917460451524,-0.3,1,320.0,561.0,1.0,219.0,1,0.705602237289778,0.0
192,192,0.9102420765159498,0.9,0,326.0,595.0,0.0,159.0,1,0.826290311265488,0.0
193,193,0.8524554652858114,0.9,0,365.0,762.0,0.0,53.0,1,0.41141756359341874,0.0
194,194,0.613264862113307,0.6,0,297.0,884.0,0.0,199.0,1,0.689643897265198,0.0
195,195,0.15276608870893016,0.2,0,486.0,578.0,0.0,246.0,1,0.752583856619224,0.0
196,196,0.831295243108549,0.8,0,250.0,537.0,0.0,93.0,1,0.4458073804390308,0.0
197,197,0.5195662571514745,0.5,0,498.0,881.0,0.0,121.0,1,0.18461360749342853,0.0
198,198,-0.6303197359662418,-0.6,1,461.0,922.0,1.0,77.0,1,0.54898773671166,0.0
199,199,0.8885501545671262,0.9,0,413.0,831.0,0.0,76.0,1,0.22357249632437332,0.0
200,200,-0.06005709780288626,-0.1,1,379.0,863.0,1.0,268.0,1,0.30043209330229925,0.0
201,201,0.5573806767541665,0.6,0,332.0,693.0,0.0,75.0,1,0.2864089323056346,0.0
202,202,-0.8774034910480817,-0.9,1,475.0,975.0,1.0,130.0,1,0.5136359709942311,0.0
203,203,0.8313499282448236,0.8,0,414.0,523.0,0.0,123.0,1,0.716630245768264,0.0
204,204,0.9760404922409889,1.0,0,462.0,622.0,0.0,96.0,1,0.18853293134691634,0.0
205,205,0.8796082167938275,0.9,0,327.0,981.0,0.0,102.0,1,0.673554996368477,0.0
206,206,-0.04608117222273922,-0.0,1,425.0,966.0,1.0,139.0,1,0.6201648927480617,0.0
207,207,-0.13310803609932154,-0.1,1,328.0,610.0,1.0,182.0,1,0.4669534921404187,0.0
208,208,0.7527964711065804,0.8,0,336.0,654.0,0.0,140.0,1,0.6904900577057518,0.0
209,209,-0.6520305877780599,-0.7,1,307.0,986.0,1.0,157.0,1,0.7732865599022701,0.0
210,210,0.09732217326027692,0.1,0,259.0,994.0,0.0,137.0,1,0.6257416374036717,0.0
211,211,0.8864080024740355,0.9,0,331.0,902.0,0.0,227.0,1,0.8386160448863819,0.0
212,212,-0.2710652470089052,-0.3,1,406.0,981.0,1.0,263.0,1,0.18743426331599206,0.0
213,213,-0.5444979236393486,-0.5,1,485.0,790.0,1.0,195.0,1,0.9620501738640075,0.0
214,214,-0.7227448051976848,-0.7,1,487.0,533.0,1.0,100.0,1,0.34746116638233937,0.0
215,215,0.533558452840946,0.5,0,318.0,874.0,0.0,198.0,1,0.4767827440191792,0.0
216,216,-0.5588487722245421,-0.6,1,256.0,855.0,1.0,119.0,1,0.21894802548163667,0.0
217,217,-0.045864801847737446,-0.0,1,342.0,864.0,1.0,264.0,1,0.6235099117382329,0.0
218,218,-0.816441574742617,-0.8,1,311.0,647.0,1.0,52.0,1,0.3298577784664942,0.0
219,219,-0.16811192950874476,-0.2,1,492.0,902.0,0.0,576.0,0,0.6005837704820919,0.0
220,220,-0.3919962497796423,-0.4,1,473.0,963.0,1.0,164.0,1,0.6058509028773011,0.0
221,221,-0.38676683352008756,-0.4,1,269.0,745.0,1.0,326.0,1,0.4196039615873709,0.0
222,222,0.9636272461389321,1.0,0,287.0,698.0,0.0,345.0,1,0.11272042329618781,0.0
223,223,-0.029629143265751612,-0.0,1,458.0,767.0,1.0,285.0,1,0.5312668044419295,0.0
224,224,0.229841156005542,0.2,0,335.0,857.0,0.0,258.0,1,0.5618229939732851,0.0
225,225,-0.9591125313499806,-1.0,1,346.0,671.0,1.0,63.0,1,0.321473941731753,0.0
226,226,0.44965242296353947,0.4,0,251.0,871.0,0.0,148.0,1,0.6366311266137641,0.0
227,227,-0.8123168628260551,-0.8,1,338.0,569.0,1.0,243.0,1,0.9924967410740996,0.0
228,228,0.046587195051044805,0.0,0,280.0,779.0,1.0,191.0,0,0.7006436244342875,0.0
229,229,0.7674953124117425,0.8,0,423.0,684.0,0.0,73.0,1,0.37054355744607514,0.0
230,230,0.9993979200816845,1.0,0,443.0,636.0,0.0,351.0,1,0.137148480024637,0.0
231,231,0.8590470823182434,0.9,0,438.0,910.0,0.0,172.0,1,0.44483318163466345,0.0
232,232,0.7168054193597804,0.7,0,372.0,549.0,0.0,219.0,1,0.8066839222223556,0.0
233,233,0.7501649843576368,0.8,0,474.0,842.0,0.0,114.0,1,0.1870316972403463,0.0
234,234,-0.0895758443046224,-0.1,1,393.0,649.0,1.0,3958.0,1,0.1372955235679996,0.0
235,235,0.04517522379458594,0.0,0,327.0,806.0,1.0,247.0,0,0.6770502626399489,0.0
236,236,-0.28799818561745516,-0.3,1,264.0,616.0,1.0,140.0,1,0.3413092079046801,0.0
237,237,0.9778375793933649,1.0,0,385.0,918.0,0.0,667.0,1,0.11562168168560988,0.0
238,238,-0.10152448983168472,-0.1,1,492.0,905.0,1.0,203.0,1,0.26535927134943493,0.0
239,239,-0.42266758273845717,-0.4,1,453.0,591.0,1.0,156.0,1,0.4015475722731827,0.0
240,240,-0.4543107592182545,-0.5,1,436.0,572.0,1.0,332.0,1,0.14647411453954795,0.0
241,241,0.12429597750762778,0.1,0,475.0,533.0,0.0,222.0,1,0.5402560910474937,0.0
242,242,0.14644925350521198,0.1,0,476.0,655.0,0.0,449.0,1,0.8558310773613427,0.0
243,243,0.9556680950395677,1.0,0,351.0,739.0,0.0,90.0,1,0.5326637633414246,0.0
244,244,0.025151483245051454,0.0,0,449.0,531.0,0.0,4020.0,1,0.14541552941087452,0.0
245,245,0.8389130800823232,0.8,0,255.0,642.0,0.0,93.0,1,0.46265330119425696,0.0
246,246,-0.5669203983301878,-0.6,1,434.0,724.0,1.0,212.0,1,0.32268812605327546,0.0
247,247,0.582334299444768,0.6,0,333.0,930.0,0.0,377.0,1,0.9756528153307743,0.0
248,248,0.6580120346173701,0.7,0,318.0,854.0,0.0,3708.0,1,0.1254142852163211,0.0
249,249,-0.11562833479322188,-0.1,1,281.0,715.0,1.0,204.0,1,0.4834919639854567,0.0
250,250,0.2485399685442431,0.2,0,343.0,662.0,0.0,295.0,1,0.4959960090735429,0.0
251,251,-0.22962502555567643,-0.2,1,325.0,934.0,1.0,321.0,1,0.6359783622075978,0.0
252,252,0.913991395871226,0.9,0,484.0,828.0,0.0,168.0,1,0.7529542604811789,0.0
253,253,0.6237315337054397,0.6,0,487.0,724.0,0.0,89.0,1,0.24912661686838333,0.0
254,254,0.7873124385879544,0.8,0,397.0,977.0,0.0,76.0,1,0.2954189506439971,0.0
255,255,-0.8616881135459018,-0.9,1,450.0,543.0,1.0,167.0,1,0.9673059199972507,0.0
256,256,-0.852406165373536,-0.9,1,260.0,576.0,1.0,194.0,1,0.7198459218486275,0.0
257,257,-0.4126019683137274,-0.4,1,410.0,631.0,1.0,239.0,1,0.6505089091128482,0.0
258,258,-0.8425815112158566,-0.8,1,385.0,723.0,1.0,82.0,1,0.9287216661673134,0.0
259,259,0.9223981768060088,0.9,0,492.0,573.0,0.0,85.0,1,0.427961408554283,0.0
260,260,-0.205378538409007,-0.2,1,318.0,656.0,1.0,166.0,1,0.24719631575571377,0.0
261,261,0.055600975649896967,0.1,0,335.0,734.0,0.0,351.0,1,0.8201327170099517,0.0
262,262,-0.775279624972715,-0.8,1,432.0,891.0,1.0,87.0,1,0.7007166085668018,0.0
263,263,-0.26876713219492077,-0.3,1,443.0,989.0,1.0,2048.0,1,0.1379095847473409,0.0
264,264,0.42157064141719114,0.4,0,418.0,611.0,0.0,71.0,1,0.46210769641771055,0.0
265,265,0.7820123721575916,0.8,0,369.0,635.0,0.0,116.0,1,0.42401200921253435,0.0
266,266,-0.4640473539978802,-0.5,1,471.0,577.0,1.0,302.0,1,0.8037950343980425,0.0
267,267,-0.6455155061097719,-0.6,1,312.0,912.0,1.0,106.0,1,0.5527064823722136,0.0
268,268,0.5915833686061398,0.6,0,452.0,918.0,0.0,170.0,1,0.8679877408806342,0.0
269,269,0.8025834602227992,0.8,0,442.0,880.0,0.0,178.0,1,0.5306455021685119,0.0
270,270,0.4304063339490731,0.4,0,429.0,862.0,0.0,159.0,1,0.3671779308370956,0.0
271,271,-0.7489923924657589,-0.7,1,368.0,979.0,1.0,93.0,1,0.329815940612071,0.0
272,272,-0.8632504282634461,-0.9,1,469.0,584.0,1.0,57.0,1,0.6250943845098988,0.0
273,273,0.8077071291587095,0.8,0,374.0,842.0,0.0,114.0,1,0.571301539979661,0.0
274,274,0.9102859651961839,0.9,0,318.0,989.0,0.0,193.0,1,0.7076109284200965,0.0
275,275,-0.843144406884363,-0.8,1,333.0,888.0,1.0,119.0,1,0.6628493352249546,0.0
276,276,-0.2194950548293375,-0.2,1,380.0,882.0,1.0,178.0,1,0.8466230825000933,0.0
277,277,-0.12858717746963766,-0.1,1,364.0,725.0,1.0,261.0,1,0.6831949239648901,0.0
278,278,-0.146663157039032,-0.1,1,485.0,673.0,1.0,112.0,1,0.4419989412288782,0.0
279,279,0.8684841193847928,0.9,0,296.0,940.0,0.0,3764.0,1,0.10979888828791506,0.0
280,280,0.5758293096841884,0.6,0,421.0,590.0,0.0,109.0,1,0.37738248652882034,0.0
281,281,0.5468663488454422,0.5,0,444.0,965.0,0.0,131.0,1,0.363396436520968,0.0
282,282,0.2960705042141101,0.3,0,360.0,884.0,0.0,246.0,1,0.512998615348738,0.0
283,283,-0.36505891137170643,-0.4,1,308.0,518.0,1.0,204.0,1,0.3196583885776899,0.0
284,284,-0.3805010029630358,-0.4,1,339.0,892.0,1.0,119.0,1,0.30495403597565524,0.0
285,285,0.9156784744057409,0.9,0,312.0,502.0,0.0,286.0,1,0.9400345837039794,0.0
286,286,-0.7738029163250795,-0.8,1,409.0,712.0,1.0,169.0,1,0.7715491349924855,0.0
287,287,0.4722995556831988,0.5,0,319.0,663.0,0.0,88.0,1,0.5760559307185577,0.0
288,288,-0.605261570735963,-0.6,1,419.0,525.0,1.0,266.0,1,0.8087639669313745,0.0
289,289,0.9433052381321734,0.9,0,301.0,671.0,0.0,348.0,1,0.9429189098973255,0.0
290,290,-0.11229107450016218,-0.1,1,381.0,653.0,1.0,196.0,1,0.5550141597518354,0.0
291,291,-0.63901229077949,-0.6,1,296.0,521.0,1.0,153.0,1,0.1809189780170129,0.0
292,292,0.18280182077923812,0.2,0,386.0,799.0,0.0,455.0,1,0.3302943233476196,0.0
293,293,0.62367676934284,0.6,0,414.0,588.0,0.0,78.0,1,0.7142066640275615,0.0
294,294,-0.9972389510012705,-1.0,1,427.0,948.0,1.0,3625.0,1,0.10109044357088118,0.0
295,295,-0.6777974785893148,-0.7,1,497.0,608.0,1.0,95.0,1,0.8749408612439823,0.0
296,296,-0.9526127368891029,-1.0,1,329.0,939.0,1.0,72.0,1,0.5518506329013217,0.0
297,297,0.6948485683647725,0.7,0,439.0,598.0,0.0,173.0,1,0.4145133948326105,0.0
298,298,-0.7597249686171685,-0.8,1,369.0,739.0,1.0,132.0,1,0.6424728990498896,0.0
299,299,0.30227655479392945,0.3,0,327.0,626.0,0.0,457.0,1,0.9394713803057556,0.0
300,300,0.3908347507793899,0.4,0,483.0,519.0,0.0,238.0,1,0.576158167986718,0.0
301,301,-0.3317523824173547,-0.3,1,371.0,758.0,1.0,131.0,1,0.22900043555389593,0.0
302,302,-0.8381317588898887,-0.8,1,380.0,563.0,1.0,97.0,1,0.2011653831175303,0.0
303,303,0.38332889534397085,0.4,0,257.0,931.0,0.0,122.0,1,0.2840186556108725,0.0
304,304,0.5811791905252048,0.6,0,252.0,570.0,0.0,98.0,1,0.37352238517770997,0.0
305,305,0.6403666513951449,0.6,0,314.0,600.0,0.0,106.0,1,0.6380225782124792,0.0
306,306,-0.41140342457145995,-0.4,1,301.0,549.0,1.0,170.0,1,0.9027905643539125,0.0
307,307,-0.5478841548691293,-0.5,1,356.0,590.0,1.0,174.0,1,0.7125120203445618,0.0
308,308,-0.6162950436424051,-0.6,1,418.0,623.0,1.0,179.0,1,0.9130809429593811,0.0
309,309,0.7181670917016649,0.7,0,268.0,560.0,0.0,112.0,1,0.45676310196428294,0.0
310,310,0.445547839881844,0.4,0,480.0,629.0,0.0,121.0,1,0.5675482110885544,0.0
311,311,-0.6816053229792254,-0.7,1,424.0,841.0,1.0,75.0,1,0.5515535134895907,0.0
312,312,0.9916867522408712,1.0,0,288.0,949.0,0.0,103.0,1,0.3831364487164346,0.0
313,313,-0.5366058531853477,-0.5,1,380.0,553.0,1.0,327.0,1,0.9696076561409299,0.0
314,314,0.059478611206520204,0.1,0,267.0,882.0,0.0,201.0,1,0.6017322461609025,0.0
315,315,0.44410726992484295,0.4,0,305.0,626.0,0.0,219.0,1,0.9702406677407872,0.0
316,316,-0.2892227362934521,-0.3,1,376.0,638.0,1.0,196.0,1,0.43462093584387385,0.0
317,317,0.8812072338693577,0.9,0,489.0,702.0,0.0,109.0,1,0.5712832950705953,0.0
318,318,0.869968904648218,0.9,0,340.0,796.0,0.0,74.0,1,0.5132023853979077,0.0
319,319,-0.35235367096528303,-0.4,1,453.0,747.0,1.0,3800.0,1,0.11140020952180756,0.0
320,320,0.6035077734885113,0.6,0,496.0,805.0,0.0,109.0,1,0.5860466282174275,0.0
321,321,0.02882396892995831,0.0,0,373.0,912.0,1.0,255.0,0,0.5538527499792438,0.0
322,322,-0.37789544867163816,-0.4,1,267.0,948.0,1.0,135.0,1,0.5953158729251491,0.0
323,323,0.76982199258921,0.8,0,406.0,529.0,0.0,85.0,1,0.4103855868478553,0.0
324,324,-0.5099303631813263,-0.5,1,281.0,699.0,1.0,160.0,1,0.8081954107730225,0.0
325,325,-0.7338396765834534,-0.7,1,260.0,970.0,1.0,120.0,1,0.2594941805857309,0.0
326,326,0.615870944137946,0.6,0,310.0,599.0,0.0,101.0,1,0.18007626387637257,0.0
327,327,-0.2710227458565393,-0.3,1,332.0,978.0,1.0,320.0,1,0.23562787246665606,0.0
328,328,0.12488376611182495,0.1,0,440.0,562.0,0.0,258.0,1,0.7934437263523183,0.0
329,329,-0.1655770341625038,-0.2,1,468.0,586.0,1.0,346.0,1,0.3161847995838915,0.0
330,330,0.563280286355903,0.6,0,457.0,764.0,0.0,119.0,1,0.463702726767504,0.0
331,331,0.3020375894291767,0.3,0,353.0,636.0,0.0,141.0,1,0.41418621937822975,0.0
332,332,0.640103851944309,0.6,0,428.0,787.0,0.0,295.0,1,0.6803920414324346,0.0
333,333,0.3184891780426944,0.3,0,386.0,741.0,0.0,183.0,1,0.7795214479795238,0.0
334,334,0.025266959752596296,0.0,0,389.0,993.0,1.0,228.0,0,0.2953539460988252,0.0
335,335,0.8485682066914404,0.8,0,354.0,909.0,0.0,187.0,1,0.8550746102681517,0.0
336,336,-0.6049795871784354,-0.6,1,422.0,853.0,1.0,115.0,1,0.7627626382330375,0.0
337,337,0.7098020003482468,0.7,0,483.0,822.0,0.0,125.0,1,0.5727156501945784,0.0
338,338,-0.21132929526437172,-0.2,1,405.0,659.0,1.0,176.0,1,0.4706325863355997,0.0
339,339,0.4420180736344652,0.4,0,327.0,513.0,0.0,100.0,1,0.7197105828700603,0.0
340,340,-0.37520674110688024,-0.4,1,498.0,868.0,1.0,64.0,1,0.32203629401648715,0.0
341,341,-0.21609360370599973,-0.2,1,427.0,893.0,1.0,200.0,1,0.3932074600889036,0.0
342,342,-0.354949028485642,-0.4,1,466.0,812.0,1.0,112.0,1,0.3070223035070204,0.0
343,343,-0.3281460082761627,-0.3,1,455.0,585.0,1.0,330.0,1,0.8999920891159763,0.0
344,344,-0.8538859606094857,-0.9,1,458.0,598.0,1.0,74.0,1,0.38130142467722805,0.0
345,345,-0.4296686112254724,-0.4,1,252.0,790.0,1.0,3958.0,1,0.11443479527990508,0.0
346,346,0.9707412341455399,1.0,0,447.0,830.0,0.0,443.0,1,0.9773107959747981,0.0
347,347,-0.5011936215512087,-0.5,1,267.0,600.0,1.0,103.0,1,0.3129296207953439,0.0
348,348,0.3478314796203468,0.3,0,493.0,941.0,0.0,136.0,1,0.2972166071427762,0.0
349,349,-0.2288856743048786,-0.2,1,308.0,536.0,1.0,176.0,1,0.7040988069574267,0.0
350,350,0.029381492637393203,0.0,0,411.0,610.0,0.0,519.0,1,0.9317153817804054,0.0
351,351,0.9287286709140017,0.9,0,481.0,945.0,0.0,204.0,1,0.7906440563267342,0.0
352,352,-0.9660714941120465,-1.0,1,427.0,825.0,1.0,108.0,1,0.31094654566999,0.0
353,353,-0.9851778621531364,-1.0,1,338.0,869.0,1.0,103.0,1,0.18213729501873915,0.0
354,354,0.7085257593368459,0.7,0,261.0,885.0,0.0,214.0,1,0.95849639259834,0.0
355,355,-0.5137156540476251,-0.5,1,307.0,799.0,1.0,174.0,1,0.5779462800530873,0.0
356,356,-0.4111588813036915,-0.4,1,407.0,682.0,1.0,151.0,1,0.8150448911123057,0.0
357,357,0.2837302692655925,0.3,0,360.0,987.0,0.0,3653.0,1,0.13468090671989585,0.0
358,358,-0.06325191384308648,-0.1,1,274.0,730.0,1.0,166.0,1,0.7056888242267692,0.0
359,359,-0.8039128091730912,-0.8,1,273.0,527.0,1.0,120.0,1,0.39996336237277774,0.0
360,360,-0.41604938508879497,-0.4,1,485.0,793.0,1.0,92.0,1,0.22842113197343217,0.0
361,361,-0.6444517739885376,-0.6,1,463.0,751.0,1.0,146.0,1,0.6426918829278625,0.0
362,362,-0.7319782726785562,-0.7,1,420.0,522.0,1.0,158.0,1,0.9894041050375196,0.0
363,363,-0.24784291290797889,-0.2,1,296.0,833.0,1.0,161.0,1,0.8764738181531312,0.0
364,364,0.6445002060103948,0.6,0,385.0,521.0,0.0,184.0,1,0.7195792850910868,0.0
365,365,-0.9986706312942186,-1.0,1,413.0,623.0,1.0,84.0,1,0.6517865169701993,0.0
366,366,-0.7438473454501566,-0.7,1,408.0,984.0,1.0,48.0,1,0.3462229505586142,0.0
367,367,-0.044042389885559086,-0.0,1,285.0,976.0,0.0,249.0,0,0.723710578134952,0.0
368,368,0.11972226197402591,0.1,0,384.0,535.0,0.0,531.0,1,0.6387619259744959,0.0
369,369,-0.7633307754141794,-0.8,1,274.0,926.0,1.0,330.0,1,0.7181120394619515,0.0
370,370,-0.3439077801468047,-0.3,1,433.0,821.0,0.0,3746.0,0,0.13331203516499834,0.0
371,371,-0.4157735395814832,-0.4,1,345.0,753.0,1.0,112.0,1,0.28856143967055875,0.0
372,372,0.49965652779010106,0.5,0,340.0,915.0,0.0,235.0,1,0.7487048703330332,0.0
373,373,0.8984206491993203,0.9,0,289.0,824.0,0.0,197.0,1,0.8463550087790996,0.0
374,374,0.5508618325934695,0.6,0,380.0,784.0,0.0,106.0,1,0.3022073735207675,0.0
375,375,-0.4047352560603408,-0.4,1,324.0,941.0,1.0,135.0,1,0.2052437260150603,0.0
376,376,-0.25278396378198487,-0.3,1,364.0,690.0,1.0,106.0,1,0.7277275500358648,0.0
377,377,0.5866010890031255,0.6,0,459.0,877.0,0.0,144.0,1,0.1935294772800551,0.0
378,378,0.3049974539774529,0.3,0,396.0,863.0,0.0,111.0,1,0.9232880853807813,0.0
379,379,0.9311323649839418,0.9,0,263.0,627.0,0.0,90.0,1,0.23776392062715715,0.0
380,380,-0.4722543082024504,-0.5,1,383.0,847.0,1.0,240.0,1,0.1686168599800188,0.0
381,381,0.9378108489409169,0.9,0,271.0,974.0,0.0,365.0,1,0.1347388092011052,0.0
382,382,-0.9374202910410487,-0.9,1,268.0,772.0,1.0,170.0,1,0.7837994998005663,0.0
383,383,-0.12916532671122205,-0.1,1,269.0,636.0,1.0,205.0,1,0.6875441556891064,0.0
384,384,-0.07882449855605578,-0.1,1,444.0,824.0,1.0,842.0,1,0.9148110965125896,0.0
385,385,-0.5691982814695127,-0.6,1,461.0,996.0,1.0,103.0,1,0.245727066947012,0.0
386,386,0.8035895507834281,0.8,0,473.0,740.0,0.0,337.0,1,0.9785094785806673,0.0
387,387,0.04246005132323871,0.0,0,310.0,514.0,0.0,306.0,1,0.905958836582365,0.0
388,388,0.7303892934070921,0.7,0,382.0,753.0,0.0,165.0,1,0.7004853221341634,0.0
389,389,0.25244325114523214,0.3,0,353.0,607.0,0.0,90.0,1,0.3537605247837242,0.0
390,390,-0.02774570053732983,-0.0,1,351.0,528.0,0.0,301.0,0,0.8086833023213387,0.0
391,391,0.5998774511158493,0.6,0,389.0,852.0,0.0,119.0,1,0.33483229102512935,0.0
392,392,-0.7356204725867497,-0.7,1,448.0,955.0,1.0,107.0,1,0.39162325866015857,0.0
393,393,0.8025782491389422,0.8,0,300.0,874.0,0.0,186.0,1,0.13717463070923377,0.0
394,394,-0.8763953481627471,-0.9,1,368.0,782.0,1.0,110.0,1,0.8070001960604349,0.0
395,395,0.9367376289359612,0.9,0,341.0,959.0,0.0,120.0,1,0.135101759646568,0.0
396,396,0.21207832611911814,0.2,0,279.0,528.0,0.0,263.0,1,0.7919215993100819,0.0
397,397,0.35446847251172,0.4,0,477.0,574.0,0.0,349.0,1,0.2035588683870166,0.0
398,398,0.25025518000045555,0.3,0,282.0,689.0,0.0,229.0,1,0.6477660386453737,0.0
399,399,-0.9751224634382976,-1.0,1,254.0,647.0,1.0,99.0,1,0.8480510392295169,0.0
400,400,-0.3980502358539857,-0.4,1,426.0,509.0,1.0,145.0,1,0.6028223572508948,0.0
401,401,-0.9710908088109753,-1.0,1,450.0,660.0,1.0,120.0,1,0.6726357731253486,0.0
402,402,-0.026444900071978195,-0.0,1,490.0,840.0,1.0,280.0,1,0.5086580991368477,0.0
403,403,0.9573274320334175,1.0,0,395.0,554.0,0.0,141.0,1,0.17839334604605078,0.0
404,404,-0.7948295113564443,-0.8,1,367.0,661.0,1.0,132.0,1,0.96685806518545,0.0
405,405,0.07804672239328458,0.1,0,253.0,924.0,0.0,233.0,1,0.6994135105810831,0.0
406,406,-0.5074785995888436,-0.5,1,411.0,560.0,1.0,79.0,1,0.363084341284749,0.0
407,407,-0.9201211908355849,-0.9,1,440.0,550.0,1.0,100.0,1,0.8779779962444207,0.0
408,408,0.8404004535313472,0.8,0,267.0,832.0,0.0,301.0,1,0.9487114893570188,0.0
409,409,0.8834960365469944,0.9,0,345.0,672.0,0.0,103.0,1,0.6205072161441684,0.0
410,410,0.08717085564519289,0.1,0,404.0,928.0,0.0,198.0,1,0.21413048604236223,0.0
411,411,0.44706795987347636,0.4,0,432.0,946.0,0.0,122.0,1,0.7836930426839019,0.0
412,412,-0.47781300488700973,-0.5,1,449.0,948.0,1.0,133.0,1,0.5943261632084165,0.0
413,413,-0.07703133884147584,-0.1,1,410.0,870.0,1.0,170.0,1,0.6596280493910164,0.0
414,414,0.4973998111406146,0.5,0,415.0,802.0,0.0,143.0,1,0.35884887034549695,0.0
415,415,-0.9425065058016557,-0.9,1,255.0,668.0,1.0,77.0,1,0.9125213217298661,0.0
416,416,0.5051307675940124,0.5,0,310.0,728.0,0.0,202.0,1,0.9297141892112024,0.0
417,417,-0.7770472538134032,-0.8,1,497.0,959.0,1.0,94.0,1,0.31603180939352493,0.0
418,418,0.21179903646808707,0.2,0,427.0,570.0,0.0,203.0,1,0.44370278464340895,0.0
419,419,-0.6802440263412988,-0.7,1,347.0,906.0,1.0,257.0,1,0.808180891909296,0.0
420,420,0.6973781689875103,0.7,0,438.0,979.0,0.0,93.0,1,0.3040576545325062,0.0
421,421,0.17653441129327585,0.2,0,413.0,858.0,0.0,1039.0,1,0.21401301415229085,0.0
422,422,0.3121406460265499,0.3,0,493.0,519.0,0.0,318.0,1,0.919923279557323,0.0
423,423,-0.49999413479480204,-0.5,1,349.0,644.0,1.0,57.0,1,0.26490407044475905,0.0
424,424,-0.7018982209312667,-0.7,1,313.0,904.0,1.0,3783.0,1,0.10658450758239639,0.0
425,425,-0.20984493709746488,-0.2,1,476.0,574.0,1.0,800.0,1,0.1728978697879597,0.0
426,426,0.2963024774115084,0.3,0,432.0,510.0,0.0,328.0,1,0.941148587738952,0.0
427,427,0.1163105519051526,0.1,0,434.0,623.0,0.0,333.0,1,0.5642896045332786,0.0
428,428,0.22033256529125667,0.2,0,385.0,682.0,0.0,253.0,1,0.5982573906488204,0.0
429,429,0.31601115977430094,0.3,0,392.0,695.0,0.0,153.0,1,0.34161560662862267,0.0
430,430,-0.8739015630310947,-0.9,1,342.0,742.0,1.0,136.0,1,0.7140285577234695,0.0
431,431,-0.04459097832589376,-0.0,1,486.0,826.0,1.0,338.0,1,0.7759537204269846,0.0
432,432,0.9250433927192121,0.9,0,381.0,655.0,0.0,144.0,1,0.6747177967180645,0.0
433,433,-0.2412366322117132,-0.2,1,319.0,932.0,1.0,429.0,1,0.8945471293159251,0.0
434,434,0.6525951934224195,0.7,0,257.0,577.0,0.0,96.0,1,0.5337200637214787,0.0
435,435,-0.14510299847821684,-0.1,1,318.0,510.0,1.0,162.0,1,0.73858449708674,0.0
436,436,-0.3199201777108167,-0.3,1,496.0,545.0,1.0,89.0,1,0.5017259917516921,0.0
437,437,-0.8235000638583017,-0.8,1,346.0,866.0,1.0,168.0,1,0.7748854111588089,0.0
438,438,-0.11097877643286469,-0.1,1,398.0,560.0,1.0,332.0,1,0.3780605758646779,0.0
439,439,-0.9353776664493236,-0.9,1,286.0,872.0,1.0,82.0,1,0.618870891875886,0.0
440,440,0.5172494044433686,0.5,0,319.0,792.0,0.0,209.0,1,0.17514448885999237,0.0
441,441,-0.6304952572016542,-0.6,1,338.0,792.0,1.0,3870.0,1,0.11608034704874977,0.0
442,442,-0.5948408462367518,-0.6,1,350.0,732.0,1.0,138.0,1,0.2964618653743383,0.0
443,443,0.072879232438533,0.1,0,261.0,790.0,0.0,159.0,1,0.35241704214110936,0.0
444,444,-0.8169747292466849,-0.8,1,336.0,911.0,0.0,723.0,0,0.9692965219358339,0.0
445,445,-0.31578592094172686,-0.3,1,400.0,986.0,1.0,154.0,1,0.3607202086649668,0.0
446,446,0.8694525628223848,0.9,0,371.0,737.0,0.0,122.0,1,0.5175124261392509,0.0
447,447,-0.7075593361603989,-0.7,1,304.0,857.0,1.0,109.0,1,0.5043210813838892,0.0
448,448,-0.3885440256230248,-0.4,1,255.0,949.0,1.0,276.0,1,0.7868162461734528,0.0
449,449,0.16098849021214945,0.2,0,492.0,872.0,0.0,366.0,1,0.20938725184629992,0.0
450,450,0.8694355581708388,0.9,0,446.0,937.0,0.0,3617.0,1,0.10502686813287675,0.0
451,451,-0.22517265671196052,-0.2,1,475.0,935.0,1.0,140.0,1,0.528188040819076,0.0
452,452,0.40022583092214736,0.4,0,290.0,710.0,0.0,140.0,1,0.690718050203536,0.0
453,453,0.33105389964771703,0.3,0,477.0,946.0,0.0,127.0,1,0.31003803302072597,0.0
454,454,-0.2566798271507329,-0.3,1,443.0,635.0,1.0,112.0,1,0.4094520469791799,0.0
455,455,-0.39144905019832343,-0.4,1,479.0,626.0,0.0,135.0,0,0.5665501696961316,0.0
456,456,-0.5243689957101456,-0.5,1,324.0,539.0,1.0,107.0,1,0.3045595766493924,0.0
457,457,-0.2311351488281268,-0.2,1,268.0,697.0,1.0,535.0,1,0.9908621695638788,0.0
458,458,-0.5041078971773687,-0.5,1,285.0,574.0,1.0,111.0,1,0.28951234747582644,0.0
459,459,0.43726725264774413,0.4,0,341.0,668.0,0.0,111.0,1,0.7355361538838568,0.0
460,460,-0.3310317089857515,-0.3,1,320.0,954.0,1.0,166.0,1,0.5638311847482537,0.0
461,461,0.030884072340279678,0.0,0,419.0,898.0,1.0,173.0,0,0.3715358143834755,0.0
462,462,-0.9903549617377982,-1.0,1,311.0,768.0,1.0,51.0,1,0.7146799182270863,0.0
463,463,-0.7546679572187569,-0.8,1,262.0,972.0,1.0,106.0,1,0.25680261980646,0.0
464,464,-0.8635315525848164,-0.9,1,414.0,844.0,1.0,132.0,1,0.8400063760214728,0.0
465,465,-0.023414643316080674,-0.0,1,288.0,699.0,1.0,193.0,1,0.3670449480363899,0.0
466,466,0.04950724396283124,0.0,0,458.0,894.0,0.0,368.0,1,0.9252077372210127,0.0
467,467,-0.24252843627837262,-0.2,1,471.0,832.0,1.0,177.0,1,0.7584634764455698,0.0
468,468,0.9344034681303177,0.9,0,360.0,873.0,0.0,387.0,1,0.13563743566110736,0.0
469,469,0.7124552613948085,0.7,0,360.0,661.0,0.0,129.0,1,0.146984580805336,0.0
470,470,0.8905214953426914,0.9,0,494.0,733.0,0.0,173.0,1,0.7023720839388963,0.0
471,471,-0.42986623053968076,-0.4,1,270.0,727.0,1.0,173.0,1,0.9961586686869913,0.0
472,472,-0.270409122604792,-0.3,1,273.0,804.0,1.0,463.0,1,0.9243728842306472,0.0
473,473,0.1643583512369542,0.2,0,457.0,949.0,0.0,384.0,1,0.9271380417162296,0.0
474,474,0.6333775867818936,0.6,0,432.0,578.0,0.0,170.0,1,0.8816869072975418,0.0
475,475,0.8439905392360292,0.8,0,465.0,513.0,0.0,132.0,1,0.4233273381977102,0.0
476,476,0.8152386652862951,0.8,0,408.0,812.0,0.0,110.0,1,0.5452871116619733,0.0
477,477,-0.4981129718070896,-0.5,1,384.0,920.0,1.0,156.0,1,0.9414282605266531,0.0
478,478,0.39893822404857127,0.4,0,257.0,602.0,0.0,211.0,1,0.3558613439554802,0.0
479,479,0.6431910478273746,0.6,0,344.0,714.0,0.0,92.0,1,0.3401968099083477,0.0
480,480,0.992012457771275,1.0,0,485.0,645.0,0.0,80.0,1,0.6089042977056441,0.0
481,481,-0.9565263057827111,-1.0,1,393.0,818.0,1.0,99.0,1,0.502977139241768,0.0
482,482,0.9702243156364703,1.0,0,372.0,613.0,0.0,155.0,1,0.7720235500108815,0.0
483,483,0.9156483815330516,0.9,0,266.0,990.0,0.0,64.0,1,0.6182327205367067,0.0
484,484,-0.8538968516290599,-0.9,1,445.0,577.0,1.0,288.0,1,0.8809210253541867,0.0
485,485,0.9267428624116942,0.9,0,449.0,580.0,0.0,171.0,1,0.8695877906804422,0.0
486,486,0.634208754595899,0.6,0,355.0,519.0,0.0,196.0,1,0.9273568788037609,0.0
487,487,-0.47509524387675883,-0.5,1,370.0,768.0,1.0,62.0,1,0.2945840401730328,0.0
488,488,-0.8532285203678682,-0.9,1,254.0,825.0,1.0,71.0,1,0.25133910884126026,0.0
489,489,-0.33050430912702966,-0.3,1,399.0,617.0,1.0,194.0,1,0.5787108985646682,0.0
490,490,-0.8868325097891299,-0.9,1,303.0,965.0,1.0,102.0,1,0.7633979006493161,0.0
491,491,-0.7945107863500553,-0.8,1,393.0,568.0,1.0,69.0,1,0.3522506208983516,0.0
492,492,0.8850684187106534,0.9,0,494.0,572.0,0.0,64.0,1,0.29348809706859597,0.0
493,493,0.5805243926651953,0.6,0,388.0,702.0,0.0,70.0,1,0.4618984648550749,0.0
494,494,-0.07843344955025677,-0.1,1,309.0,651.0,0.0,200.0,0,0.7133615863203142,0.0
495,495,0.24300482713745408,0.2,0,284.0,908.0,0.0,258.0,1,0.8051170324810756,0.0
496,496,-0.26306894226240396,-0.3,1,265.0,822.0,1.0,183.0,1,0.9114441791630161,0.0
497,497,0.2779139743957302,0.3,0,406.0,684.0,0.0,800.0,1,0.8696448869435409,0.0
498,498,-0.8905203352673159,-0.9,1,269.0,530.0,1.0,81.0,1,0.5465306290819548,0.0
499,499,-0.45700498037138115,-0.5,1,421.0,670.0,1.0,149.0,1,0.25384401672649715,0.0
500,500,-0.47793984468651196,-0.5,1,488.0,769.0,1.0,153.0,1,0.21138449991290925,0.0
501,501,0.17006010758552637,0.2,0,363.0,594.0,0.0,113.0,1,0.7973011838719268,0.0
502,502,-0.8606598492848756,-0.9,1,452.0,521.0,1.0,107.0,1,0.5246946613800271,0.0
503,503,-0.11798133074531147,-0.1,1,295.0,512.0,0.0,303.0,0,0.948270126847924,0.0
504,504,0.346463105136416,0.3,0,293.0,577.0,0.0,290.0,1,0.8718643905571075,0.0
505,505,0.8248164286269357,0.8,0,485.0,965.0,0.0,300.0,1,0.9894499534712909,0.0
506,506,0.5706955976772559,0.6,0,349.0,584.0,0.0,227.0,1,0.9822234912219729,0.0
507,507,-0.5508217134663362,-0.6,1,301.0,941.0,1.0,208.0,1,0.5151964868058243,0.0
508,508,0.41985059578196426,0.4,0,346.0,776.0,0.0,248.0,1,0.875076182749519,0.0
509,509,-0.8797988228423792,-0.9,1,473.0,909.0,1.0,168.0,1,0.6350412163716959,0.0
510,510,-0.8328767811238642,-0.8,1,366.0,897.0,1.0,507.0,1,0.8104815553679904,0.0
511,511,-0.6458681345726915,-0.6,1,293.0,540.0,1.0,167.0,1,0.9605792387472041,0.0
512,512,0.9734410384377996,1.0,0,285.0,642.0,0.0,93.0,1,0.3697109863896546,0.0
513,513,-0.9509512549435466,-1.0,1,436.0,970.0,1.0,104.0,1,0.36277160496658967,0.0
514,514,0.24023460018683007,0.2,0,265.0,893.0,0.0,302.0,1,0.9017372790644921,0.0
515,515,0.11670057661198174,0.1,0,375.0,600.0,0.0,135.0,1,0.4333078489193338,0.0
516,516,-0.12658962530500584,-0.1,1,413.0,883.0,1.0,194.0,1,0.47702515648372046,0.0
517,517,0.6833919559588209,0.7,0,492.0,863.0,0.0,145.0,1,0.6890019299115796,0.0
518,518,-0.02598405630604117,-0.0,1,354.0,856.0,1.0,170.0,1,0.40110791487915753,0.0
519,519,0.05973098938261345,0.1,0,259.0,974.0,0.0,3767.0,1,0.15685156542593062,0.0
520,520,-0.9468139979807659,-0.9,1,283.0,602.0,1.0,65.0,1,0.4914211386143158,0.0
521,521,-0.9292476044071025,-0.9,1,473.0,606.0,1.0,191.0,1,0.7462438297224762,0.0
522,522,-0.9156704395152759,-0.9,1,396.0,974.0,1.0,90.0,1,0.4042959885005316,0.0
523,523,-0.7586615428998076,-0.8,1,387.0,674.0,1.0,239.0,1,0.837898800167682,0.0
524,524,0.22442653537800772,0.2,0,455.0,618.0,0.0,287.0,1,0.1902813863719251,0.0
525,525,-0.37830825792940126,-0.4,1,367.0,817.0,1.0,146.0,1,0.7027262679822855,0.0
526,526,0.2765976805535191,0.3,0,477.0,706.0,0.0,247.0,1,0.5025979982111468,0.0
527,527,-0.764220068738654,-0.8,1,276.0,870.0,1.0,124.0,1,0.8006321288367462,0.0
528,528,0.6048970470094732,0.6,0,317.0,691.0,0.0,162.0,1,0.23885681455867833,0.0
529,529,-0.4015030787224776,-0.4,1,382.0,577.0,1.0,351.0,1,0.1716942038399254,0.0
530,530,0.8321271701299804,0.8,0,456.0,690.0,0.0,84.0,1,0.22153536172319582,0.0
531,531,0.18771155015273067,0.2,0,342.0,760.0,0.0,188.0,1,0.6153687840628919,0.0
532,532,-0.7892009436375909,-0.8,1,433.0,858.0,1.0,209.0,1,0.7076990318990231,0.0
533,533,-0.4978886536286242,-0.5,1,251.0,695.0,1.0,184.0,1,0.5784456620844116,0.0
534,534,-0.26928968744903314,-0.3,1,454.0,994.0,1.0,262.0,1,0.7496581841951874,0.0
535,535,-0.6872369447142184,-0.7,1,402.0,920.0,1.0,148.0,1,0.19515579748105277,0.0
536,536,0.2107481139740377,0.2,0,416.0,661.0,0.0,163.0,1,0.5952454198707112,0.0
537,537,0.5337104235241972,0.5,0,367.0,774.0,0.0,189.0,1,0.8392143227704909,0.0
538,538,0.2810580373820444,0.3,0,333.0,618.0,0.0,289.0,1,0.4343935658381115,0.0
539,539,-0.7371722969703529,-0.7,1,349.0,596.0,1.0,235.0,1,0.7508925706402758,0.0
540,540,-0.4901981036445229,-0.5,1,378.0,567.0,1.0,125.0,1,0.5599646128811876,0.0
541,541,-0.5188097990314595,-0.5,1,319.0,929.0,1.0,222.0,1,0.6254962376559233,0.0
542,542,0.916793368249581,0.9,0,480.0,961.0,0.0,99.0,1,0.33868917842117496,0.0
543,543,-0.19789987629417127,-0.2,1,255.0,617.0,1.0,278.0,1,0.410098182109797,0.0
544,544,0.8258955979632969,0.8,0,288.0,839.0,0.0,103.0,1,0.45151460035293867,0.0
545,545,0.5637400191002249,0.6,0,292.0,686.0,0.0,82.0,1,0.8254355493763555,0.0
546,546,-0.9487061313555076,-0.9,1,268.0,656.0,1.0,46.0,1,0.22404285376706734,0.0
547,547,0.8205882092772239,0.8,0,473.0,810.0,0.0,227.0,1,0.8126981729585193,0.0
548,548,-0.5310799182756476,-0.5,1,319.0,610.0,1.0,121.0,1,0.2051328359834009,0.0
549,549,0.8873189277775144,0.9,0,297.0,906.0,0.0,3797.0,1,0.10566888899998779,0.0
550,550,0.17491000657782463,0.2,0,384.0,504.0,0.0,162.0,1,0.8731707173317302,0.0
551,551,0.6932362671171366,0.7,0,492.0,937.0,0.0,91.0,1,0.2694886370798931,0.0
552,552,0.61350818555079,0.6,0,386.0,818.0,0.0,196.0,1,0.8366183441408735,0.0
553,553,0.6092267127998925,0.6,0,391.0,985.0,0.0,84.0,1,0.32672471771983996,0.0
554,554,-0.2930076521587899,-0.3,1,298.0,509.0,1.0,1093.0,1,0.1466812795662871,0.0
555,555,-0.5021701877631628,-0.5,1,450.0,935.0,1.0,125.0,1,0.8441183265554613,0.0
556,556,-0.6318360898771431,-0.6,1,302.0,982.0,1.0,96.0,1,0.5246412417695187,0.0
557,557,-0.48621061973501467,-0.5,1,379.0,677.0,1.0,334.0,1,0.4723600025560144,0.0
558,558,0.7533967908024701,0.8,0,328.0,621.0,0.0,411.0,1,0.9926152876824083,0.0
559,559,0.03252459319604628,0.0,0,383.0,774.0,1.0,383.0,0,0.844524755104329,0.0
560,560,-0.06865088413052844,-0.1,1,323.0,985.0,0.0,92.0,0,0.29225790659319284,0.0
561,561,-0.324487743422456,-0.3,1,486.0,571.0,1.0,143.0,1,0.19258073920631247,0.0
562,562,0.5195955226718267,0.5,0,339.0,927.0,0.0,3734.0,1,0.1276832056227947,0.0
563,563,-0.18840067584959064,-0.2,1,362.0,990.0,1.0,228.0,1,0.8423792966808155,0.0
564,564,0.2083504708519972,0.2,0,253.0,791.0,0.0,76.0,1,0.34002052793794046,0.0
565,565,0.5838822474548448,0.6,0,408.0,767.0,0.0,115.0,1,0.2175381082684688,0.0
566,566,0.1817221827355855,0.2,0,300.0,521.0,0.0,149.0,1,0.7115633863358675,0.0
567,567,-0.02045813998892143,-0.0,1,425.0,661.0,1.0,224.0,1,0.8524759376517524,0.0
568,568,-0.8494008974836471,-0.8,1,435.0,614.0,1.0,91.0,1,0.17178313064271278,0.0
569,569,0.5340996222070047,0.5,0,335.0,738.0,0.0,257.0,1,0.9068612323180733,0.0
570,570,-0.6181222801800503,-0.6,1,471.0,950.0,1.0,389.0,1,0.9553603310260363,0.0
571,571,0.4118950872777887,0.4,0,324.0,980.0,0.0,96.0,1,0.6883567900909772,0.0
572,572,0.04814809731549308,0.0,0,430.0,823.0,0.0,267.0,1,0.9501773354121898,0.0
573,573,0.8499136733037578,0.8,0,428.0,827.0,0.0,155.0,1,0.8601352398858975,0.0
574,574,0.5401211197768585,0.5,0,458.0,872.0,0.0,270.0,1,0.9660402162307526,0.0
575,575,-0.4065468567369084,-0.4,1,252.0,535.0,1.0,193.0,1,0.3008873581669661,0.0
576,576,-0.5468704602093524,-0.5,1,456.0,547.0,1.0,127.0,1,0.48558593385302506,0.0
577,577,0.8442438621724007,0.8,0,356.0,733.0,0.0,81.0,1,0.17604113980278313,0.0
578,578,-0.33063490357486947,-0.3,1,444.0,831.0,1.0,3725.0,1,0.11874424295132735,0.0
579,579,-0.8133936809802949,-0.8,1,329.0,945.0,1.0,226.0,1,0.761429703306301,0.0
580,580,0.16672677474376263,0.2,0,436.0,988.0,0.0,216.0,1,0.9509246680111217,0.0
581,581,-0.8521729769418094,-0.9,1,435.0,855.0,1.0,100.0,1,0.40971328510547456,0.0
582,582,-0.28951573257506746,-0.3,1,495.0,785.0,1.0,240.0,1,0.7545852513795676,0.0
583,583,0.6147524249473566,0.6,0,456.0,921.0,0.0,103.0,1,0.2869883899973507,0.0
584,584,-0.19099620417569452,-0.2,1,274.0,797.0,1.0,109.0,1,0.2694040234774465,0.0
585,585,0.4319014235803573,0.4,0,296.0,906.0,0.0,98.0,1,0.3191418309962161,0.0
586,586,-0.2540460410779066,-0.3,1,333.0,897.0,1.0,130.0,1,0.8631839796809603,0.0
587,587,0.07177592297530455,0.1,0,454.0,915.0,0.0,271.0,1,0.6394212495967061,0.0
588,588,-0.5451112681659935,-0.5,1,392.0,989.0,1.0,119.0,1,0.46895234190563406,0.0
589,589,0.6415565777515697,0.6,0,391.0,595.0,0.0,134.0,1,0.20533000186800984,0.0
590,590,-0.9555602797744198,-1.0,1,331.0,545.0,1.0,84.0,1,0.8603915582152044,0.0
591,591,-0.9919742013265906,-1.0,1,346.0,794.0,1.0,160.0,1,0.680248305680808,0.0
592,592,-0.36861510082083604,-0.4,1,374.0,785.0,1.0,181.0,1,0.29729763399490083,0.0
593,593,-0.5100285431694993,-0.5,1,446.0,871.0,1.0,103.0,1,0.4088439417489088,0.0
594,594,-0.2316284810302487,-0.2,1,285.0,641.0,1.0,124.0,1,0.36093543070096257,0.0
595,595,-0.3282745966835299,-0.3,1,254.0,844.0,1.0,102.0,1,0.41951595837653466,0.0
596,596,0.194499739041752,0.2,0,368.0,940.0,0.0,252.0,1,0.8963236184423706,0.0
597,597,0.2444401623885375,0.2,0,384.0,596.0,0.0,220.0,1,0.5655543879111925,0.0
598,598,-0.20283138052554817,-0.2,1,286.0,924.0,1.0,90.0,1,0.3668537239819245,0.0
599,599,0.22397642064471435,0.2,0,379.0,708.0,0.0,93.0,1,0.3164554223525623,0.0
600,600,-0.10966106551156773,-0.1,1,262.0,982.0,0.0,216.0,0,0.891171082643655,0.0
601,601,-0.6025914059060766,-0.6,1,486.0,522.0,1.0,202.0,1,0.19800684863886026,0.0
602,602,0.13323932573799047,0.1,0,463.0,655.0,0.0,222.0,1,0.9507200756392372,0.0
603,603,-0.8849006943218276,-0.9,1,408.0,523.0,1.0,289.0,1,0.14243232302562356,0.0
604,604,-0.36275697479901536,-0.4,1,305.0,634.0,1.0,241.0,1,0.975999655133143,0.0
605,605,-0.058080674444230374,-0.1,1,372.0,885.0,0.0,63.0,0,0.9085509431202415,0.0
606,606,-0.8420244609430099,-0.8,1,389.0,845.0,1.0,216.0,1,0.9175150121203565,0.0
607,607,0.7236819577427276,0.7,0,376.0,537.0,0.0,267.0,1,0.9165536656315386,0.0
608,608,0.7596681025192786,0.8,0,367.0,883.0,0.0,200.0,1,0.5004166637699613,0.0
609,609,-0.3596513133824524,-0.4,1,302.0,597.0,1.0,161.0,1,0.8874266389027385,0.0
610,610,0.8686199673282755,0.9,0,482.0,564.0,0.0,124.0,1,0.18230311912093244,0.0
611,611,0.721671956026356,0.7,0,263.0,912.0,0.0,135.0,1,0.6724134430970113,0.0
612,612,-0.5338905365118154,-0.5,1,469.0,811.0,1.0,400.0,1,0.9554654529566661,0.0
613,613,0.9438878765612728,0.9,0,291.0,973.0,0.0,46.0,1,0.3741983956540811,0.0
614,614,0.8182965696409641,0.8,0,385.0,690.0,0.0,95.0,1,0.9149097977860734,0.0
615,615,0.6465932515873181,0.6,0,410.0,885.0,0.0,135.0,1,0.8107557330036235,0.0
616,616,0.24430841338043563,0.2,0,322.0,870.0,0.0,238.0,1,0.6374799801185241,0.0
617,617,-0.8041531677177403,-0.8,1,398.0,545.0,1.0,207.0,1,0.8957700286523896,0.0
618,618,-0.6752272935961454,-0.7,1,431.0,806.0,1.0,123.0,1,0.8139629426062587,0.0
619,619,0.9142740143261057,0.9,0,291.0,512.0,0.0,67.0,1,0.41371535955814864,0.0
620,620,0.9359475496933789,0.9,0,373.0,626.0,0.0,101.0,1,0.8122564738186222,0.0
621,621,-0.7110471189624419,-0.7,1,452.0,925.0,1.0,223.0,1,0.14841513148718907,0.0
622,622,0.27454285515469024,0.3,0,376.0,931.0,0.0,103.0,1,0.5675863588107225,0.0
623,623,0.01689762528638883,0.0,0,465.0,831.0,1.0,3704.0,0,0.10928926812479957,0.0
624,624,0.32017416996303627,0.3,0,365.0,581.0,0.0,134.0,1,0.552311115337213,0.0
625,625,-0.22483992294031707,-0.2,1,436.0,514.0,1.0,310.0,1,0.47990837950575715,0.0
626,626,0.8369619948981712,0.8,0,429.0,566.0,0.0,55.0,1,0.3606687370030258,0.0
627,627,-0.9209327987553269,-0.9,1,494.0,930.0,1.0,126.0,1,0.7398198125016372,0.0
628,628,0.07673088411215057,0.1,0,442.0,551.0,0.0,457.0,1,0.6118896289866355,0.0
629,629,0.10711541435035876,0.1,0,322.0,890.0,0.0,168.0,1,0.49077977333772327,0.0
630,630,0.34840442344580547,0.3,0,298.0,516.0,0.0,106.0,1,0.4469502811771746,0.0
631,631,0.18990199789459372,0.2,0,347.0,562.0,0.0,201.0,1,0.5996937119870708,0.0
632,632,0.6060248075575019,0.6,0,413.0,704.0,0.0,203.0,1,0.5636841467275842,0.0
633,633,0.16877724575110986,0.2,0,285.0,706.0,0.0,429.0,1,0.9576547721910587,0.0
634,634,-0.5812438902479302,-0.6,1,271.0,521.0,1.0,268.0,1,0.8168984363128622,0.0
635,635,-0.4213581831695785,-0.4,1,475.0,865.0,1.0,120.0,1,0.26430306471973963,0.0
636,636,0.3136411780146875,0.3,0,366.0,635.0,0.0,189.0,1,0.7699905879169519,0.0
637,637,-0.14233304080946407,-0.1,1,476.0,970.0,1.0,544.0,1,0.9627267392515862,0.0
638,638,-0.9776071626782776,-1.0,1,353.0,877.0,1.0,130.0,1,0.1383281838237551,0.0
639,639,-0.2620562398413533,-0.3,1,363.0,903.0,0.0,304.0,0,0.9079476111631394,0.0
640,640,-0.14689322530381488,-0.1,1,282.0,770.0,1.0,238.0,1,0.4176470408777967,0.0
641,641,0.166029297543959,0.2,0,416.0,910.0,0.0,174.0,1,0.5933700920958349,0.0
642,642,-0.03718277038328788,-0.0,1,270.0,516.0,0.0,224.0,0,0.6506553803726142,0.0
643,643,0.8990253026791262,0.9,0,366.0,581.0,0.0,163.0,1,0.7575551953999342,0.0
644,644,-0.43690380742512525,-0.4,1,467.0,892.0,1.0,141.0,1,0.5040260284269203,0.0
645,645,0.12975820541371252,0.1,0,378.0,909.0,0.0,3713.0,1,0.1309092858795372,0.0
646,646,-0.9575185994089066,-1.0,1,304.0,720.0,1.0,76.0,1,0.287009193184413,0.0
647,647,0.9012670314999272,0.9,0,262.0,512.0,0.0,86.0,1,0.30618030492505466,0.0
648,648,0.6751206561834884,0.7,0,327.0,882.0,0.0,301.0,1,0.7324241421716873,0.0
649,649,-0.9778586134432541,-1.0,1,466.0,565.0,1.0,129.0,1,0.9883055505760546,0.0
650,650,0.40423615693551684,0.4,0,436.0,983.0,0.0,321.0,1,0.541286390151422,0.0
651,651,-0.5074183765405471,-0.5,1,299.0,741.0,1.0,160.0,1,0.8259595405307184,0.0
652,652,-0.05096057420035116,-0.1,1,411.0,613.0,1.0,476.0,1,0.54549977626285,0.0
653,653,-0.9755413470067802,-1.0,1,425.0,827.0,1.0,118.0,1,0.8172945438911011,0.0
654,654,0.7498633349258625,0.7,0,282.0,735.0,0.0,273.0,1,0.9421533954135943,0.0
655,655,-0.2140853164367713,-0.2,1,420.0,943.0,1.0,187.0,1,0.21028534818975053,0.0
656,656,-0.9445872612979789,-0.9,1,282.0,860.0,1.0,158.0,1,0.678330149429742,0.0
657,657,-0.42450081843696497,-0.4,1,309.0,918.0,1.0,383.0,1,0.9984322636240993,0.0
658,658,-0.7360498008480632,-0.7,1,371.0,714.0,1.0,165.0,1,0.45467075207228536,0.0
659,659,-0.7829907197510979,-0.8,1,420.0,849.0,1.0,111.0,1,0.48872804602285425,0.0
660,660,-0.33454154239489897,-0.3,1,257.0,511.0,1.0,92.0,1,0.5443354473579418,0.0
661,661,0.9402483507814854,0.9,0,428.0,646.0,0.0,186.0,1,0.8518451576936134,0.0
662,662,0.9787765054349609,1.0,0,346.0,896.0,0.0,148.0,1,0.8971864654617439,0.0
663,663,-0.8929737257948189,-0.9,1,395.0,631.0,1.0,144.0,1,0.7454773256473569,0.0
664,664,-0.9815653849833321,-1.0,1,487.0,648.0,1.0,3865.0,1,0.10662741265405458,0.0
665,665,-0.7868411940895137,-0.8,1,465.0,948.0,1.0,237.0,1,0.942248136449098,0.0
666,666,-0.9818800960995921,-1.0,1,453.0,666.0,1.0,71.0,1,0.2812677217666051,0.0
667,667,-0.6119293862358925,-0.6,1,433.0,985.0,1.0,172.0,1,0.8659584975254682,0.0
668,668,-0.49873672328788277,-0.5,1,367.0,826.0,1.0,317.0,1,0.6668021248243597,0.0
669,669,-0.8886486141997205,-0.9,1,334.0,917.0,1.0,119.0,1,0.8334471960617059,0.0
670,670,0.897179721561232,0.9,0,422.0,632.0,0.0,116.0,1,0.327060262912708,0.0
671,671,-0.31680301082608886,-0.3,1,418.0,748.0,1.0,174.0,1,0.7900168522489806,0.0
672,672,-0.16799877319498924,-0.2,1,471.0,652.0,1.0,367.0,1,0.9478397659840017,0.0
673,673,-0.9584524096451585,-1.0,1,437.0,832.0,1.0,141.0,1,0.8957831627899332,0.0
674,674,-0.8964282881076095,-0.9,1,288.0,907.0,1.0,105.0,1,0.5501365625650853,0.0
675,675,0.6034719323942901,0.6,0,326.0,600.0,0.0,144.0,1,0.2592726709330444,0.0
676,676,-0.948342827389131,-0.9,1,314.0,560.0,1.0,216.0,1,0.6764968628048644,0.0
677,677,0.05278521481055187,0.1,0,432.0,741.0,1.0,397.0,0,0.9146605066532971,0.0
678,678,0.05577266944937631,0.1,0,379.0,705.0,1.0,3916.0,0,0.1299835323618371,0.0
679,679,-0.11129916963268549,-0.1,1,493.0,908.0,1.0,179.0,1,0.7127684976242735,0.0
680,680,-0.33510020800665297,-0.3,1,257.0,964.0,1.0,219.0,1,0.8455780915257833,0.0
681,681,0.39490558450063307,0.4,0,326.0,869.0,0.0,235.0,1,0.8204986616293637,0.0
682,682,-0.30555822321341664,-0.3,1,374.0,601.0,1.0,135.0,1,0.3735985720418106,0.0
683,683,0.4607567892579547,0.5,0,367.0,970.0,0.0,93.0,1,0.6107430893810164,0.0
684,684,0.7724408378038232,0.8,0,263.0,854.0,0.0,213.0,1,0.9233745917157719,0.0
685,685,-0.657022138923923,-0.7,1,331.0,694.0,1.0,185.0,1,0.6273967448607964,0.0
686,686,0.3571756288362622,0.4,0,340.0,644.0,0.0,226.0,1,0.5569926119750653,0.0
687,687,0.3355261782704293,0.3,0,257.0,656.0,0.0,4087.0,1,0.10631928099271054,0.0
688,688,-0.7784262328509053,-0.8,1,481.0,882.0,1.0,187.0,1,0.6752576338166291,0.0
689,689,0.4692750468520164,0.5,0,309.0,639.0,0.0,122.0,1,0.657647548496951,0.0
690,690,-0.6651641786816513,-0.7,1,284.0,672.0,1.0,304.0,1,0.9835607271563294,0.0
691,691,0.9623612940826789,1.0,0,377.0,987.0,0.0,216.0,1,0.71676045213205,0.0
692,692,-0.5243649689239447,-0.5,1,263.0,603.0,1.0,174.0,1,0.8065541149340317,0.0
693,693,-0.4826118403192088,-0.5,1,274.0,888.0,1.0,338.0,1,0.5256249947708144,0.0
694,694,-0.07716532468747839,-0.1,1,317.0,697.0,1.0,356.0,1,0.4729564438051168,0.0
695,695,0.7506864350351397,0.8,0,320.0,918.0,0.0,152.0,1,0.7391970876240331,0.0
696,696,0.6894232200848738,0.7,0,326.0,667.0,0.0,127.0,1,0.5014125800648747,0.0
697,697,0.2631644625272773,0.3,0,340.0,879.0,0.0,141.0,1,0.42378310837415956,0.0
698,698,0.8848645202423868,0.9,0,281.0,951.0,0.0,78.0,1,0.5341540115438487,0.0
699,699,-0.1318978498703467,-0.1,1,434.0,756.0,1.0,370.0,1,0.6713714431935064,0.0
700,700,0.44305013318600706,0.4,0,318.0,683.0,0.0,289.0,1,0.6327714004030199,0.0
701,701,-0.08772864476601461,-0.1,1,257.0,719.0,0.0,384.0,0,0.8767245026285609,0.0
702,702,-0.3907004625521575,-0.4,1,495.0,753.0,1.0,3752.0,1,0.1339677362148291,0.0
703,703,0.9950705984134636,1.0,0,378.0,915.0,0.0,107.0,1,0.8810552173498643,0.0
704,704,-0.4090994712841258,-0.4,1,402.0,832.0,1.0,126.0,1,0.3064952517200167,0.0
705,705,-0.7035047578064051,-0.7,1,290.0,882.0,1.0,178.0,1,0.7385285403729642,0.0
706,706,-0.1294776971695195,-0.1,1,355.0,628.0,1.0,527.0,1,0.7850098300668195,0.0
707,707,-0.11468946451011486,-0.1,1,295.0,693.0,0.0,512.0,0,0.9344403310190397,0.0
708,708,0.7207318379104217,0.7,0,268.0,748.0,0.0,94.0,1,0.2934989405122854,0.0
709,709,-0.25320376993618154,-0.3,1,440.0,626.0,1.0,304.0,1,0.7789286663885195,0.0
710,710,-0.5728804670458696,-0.6,1,445.0,863.0,1.0,272.0,1,0.9644909196944466,0.0
711,711,0.7612425715223865,0.8,0,363.0,944.0,0.0,113.0,1,0.20798462733612175,0.0
712,712,0.5159074341838501,0.5,0,365.0,671.0,0.0,74.0,1,0.32147542956653524,0.0
713,713,-0.28109808399356107,-0.3,1,338.0,601.0,1.0,151.0,1,0.7223529104912958,0.0
714,714,-0.3334114566510391,-0.3,1,475.0,857.0,1.0,218.0,1,0.9643997738742799,0.0
715,715,-0.35098437121072856,-0.4,1,433.0,670.0,1.0,117.0,1,0.24105366295672803,0.0
716,716,0.22976905825684768,0.2,0,376.0,722.0,0.0,152.0,1,0.2282447390201548,0.0
717,717,0.5758919262553628,0.6,0,296.0,778.0,0.0,166.0,1,0.6028146473862894,0.0
718,718,0.17142047470774102,0.2,0,345.0,535.0,0.0,400.0,1,0.2952670035347087,0.0
719,719,0.6762780850446863,0.7,0,296.0,684.0,0.0,180.0,1,0.6983151506657244,0.0
720,720,-0.17737065342371183,-0.2,1,396.0,546.0,1.0,228.0,1,0.5710925297052295,0.0
721,721,-0.6242715878328402,-0.6,1,401.0,992.0,1.0,187.0,1,0.6943326331108656,0.0
722,722,0.7582370257426161,0.8,0,369.0,856.0,0.0,145.0,1,0.7105790032212358,0.0
723,723,-0.9110260318652805,-0.9,1,410.0,852.0,1.0,48.0,1,0.31374122009305866,0.0
724,724,-0.689877325927913,-0.7,1,334.0,903.0,1.0,303.0,1,0.6887866478342693,0.0
725,725,-0.7884384195492702,-0.8,1,260.0,703.0,1.0,167.0,1,0.9977413675580682,0.0
726,726,0.4276075985227099,0.4,0,259.0,902.0,0.0,169.0,1,0.808706043155633,0.0
727,727,-0.35671662998741693,-0.4,1,340.0,785.0,1.0,305.0,1,0.18806004680346577,0.0
728,728,0.8697253390751076,0.9,0,369.0,710.0,0.0,71.0,1,0.4059174912246243,0.0
729,729,0.6320445004720483,0.6,0,318.0,743.0,0.0,149.0,1,0.4933062240374523,0.0
730,730,0.321550110662709,0.3,0,317.0,753.0,0.0,400.0,1,0.9768523679551905,0.0
731,731,0.5553230510097829,0.6,0,459.0,941.0,0.0,110.0,1,0.5147866649928082,0.0
732,732,-0.7317144954977954,-0.7,1,255.0,669.0,1.0,156.0,1,0.5407331444918041,0.0
733,733,0.6367080625851949,0.6,0,487.0,749.0,0.0,214.0,1,0.8555150029256104,0.0
734,734,0.3107310184178034,0.3,0,494.0,602.0,0.0,184.0,1,0.4328358208779751,0.0
735,735,-0.6507911893090355,-0.7,1,377.0,697.0,1.0,146.0,1,0.16555378747839128,0.0
736,736,-0.9052772267536235,-0.9,1,479.0,560.0,1.0,131.0,1,0.8796488799994793,0.0
737,737,-0.546035393631793,-0.5,1,394.0,875.0,1.0,291.0,1,0.8206301640236652,0.0
738,738,0.9560056884620967,1.0,0,377.0,757.0,0.0,86.0,1,0.43785571173255855,0.0
739,739,-0.10595133421581382,-0.1,1,460.0,601.0,1.0,189.0,1,0.4294311664463173,0.0
740,740,0.1463581115716155,0.1,0,303.0,756.0,0.0,211.0,1,0.3296768243215529,0.0
741,741,0.19138429572909743,0.2,0,302.0,606.0,0.0,142.0,1,0.42258270478588444,0.0
742,742,-0.07891303894064938,-0.1,1,381.0,698.0,1.0,261.0,1,0.9509701909101147,0.0
743,743,0.44004928007173394,0.4,0,265.0,993.0,0.0,212.0,1,0.7735729479730865,0.0
744,744,0.7043566371883494,0.7,0,253.0,645.0,0.0,112.0,1,0.48810238430098885,0.0
745,745,-0.013374471737066962,-0.0,1,283.0,991.0,0.0,516.0,0,0.8118603211050424,0.0
746,746,0.6859839217604684,0.7,0,276.0,993.0,0.0,111.0,1,0.36157003539732346,0.0
747,747,-0.2294936669970784,-0.2,1,356.0,631.0,1.0,343.0,1,0.7122432710309669,0.0
748,748,-0.5777804799937667,-0.6,1,336.0,748.0,1.0,156.0,1,0.7492312060243387,0.0
749,749,0.48462065396742804,0.5,0,276.0,706.0,0.0,208.0,1,0.6835610100060735,0.0
750,750,-0.6945967481505844,-0.7,1,345.0,643.0,1.0,4012.0,1,0.10476989109011298,0.0
751,751,0.5889279809338401,0.6,0,309.0,774.0,0.0,107.0,1,0.41848373283478135,0.0
752,752,-0.05845869978939655,-0.1,1,493.0,941.0,1.0,1966.0,1,0.20162284521882123,0.0
753,753,-0.35742142181001046,-0.4,1,447.0,824.0,1.0,159.0,1,0.7731167261456233,0.0
754,754,0.7586580869280373,0.8,0,424.0,963.0,0.0,223.0,1,0.9019011440254453,0.0
755,755,-0.3266006503406207,-0.3,1,265.0,565.0,1.0,110.0,1,0.8488451227018321,0.0
756,756,-0.7530722816221034,-0.8,1,493.0,895.0,1.0,182.0,1,0.13772329068370176,0.0
757,757,-0.4232693648988395,-0.4,1,298.0,709.0,1.0,193.0,1,0.7350527079497918,0.0
758,758,-0.2202003551658538,-0.2,1,337.0,743.0,1.0,180.0,1,0.3886355114712057,0.0
759,759,0.5013346637249356,0.5,0,473.0,780.0,0.0,157.0,1,0.7538543260377156,0.0
760,760,0.738479581850032,0.7,0,418.0,858.0,0.0,144.0,1,0.8463967860835753,0.0
761,761,0.22154345066466719,0.2,0,371.0,914.0,0.0,285.0,1,0.5081348381340253,0.0
762,762,-0.4369298117436571,-0.4,1,485.0,786.0,1.0,159.0,1,0.8660785991575121,0.0
763,763,-0.4097013155574516,-0.4,1,329.0,689.0,1.0,152.0,1,0.27700294940037795,0.0
764,764,-0.3923222426634003,-0.4,1,431.0,893.0,1.0,206.0,1,0.42598034950917485,0.0
765,765,0.5084656451186669,0.5,0,352.0,755.0,0.0,3893.0,1,0.13877427705593023,0.0
766,766,0.5175707611320908,0.5,0,363.0,819.0,0.0,78.0,1,0.25641807625251145,0.0
767,767,0.4101176593874438,0.4,0,468.0,809.0,0.0,163.0,1,0.4272715544596005,0.0
768,768,0.7642470770269585,0.8,0,363.0,761.0,0.0,106.0,1,0.30413594189477927,0.0
769,769,0.5524306334316738,0.6,0,327.0,802.0,0.0,301.0,1,0.8750912390361064,0.0
770,770,-0.8700293613022476,-0.9,1,328.0,773.0,1.0,199.0,1,0.8789574567191029,0.0
771,771,0.11605728447337782,0.1,0,262.0,805.0,0.0,243.0,1,0.3832796768139006,0.0
772,772,0.6070678543895993,0.6,0,368.0,839.0,0.0,123.0,1,0.5592098662847713,0.0
773,773,0.8709403537482037,0.9,0,280.0,538.0,0.0,122.0,1,0.16854185202576513,0.0
774,774,0.37613166147888477,0.4,0,492.0,584.0,0.0,174.0,1,0.21994191681195147,0.0
775,775,-0.6311932976085946,-0.6,1,482.0,553.0,1.0,185.0,1,0.9406987814121772,0.0
776,776,-0.842535279844218,-0.8,1,403.0,718.0,1.0,129.0,1,0.21723470225614058,0.0
777,777,0.7915826298453286,0.8,0,345.0,814.0,0.0,91.0,1,0.7928836615340068,0.0
778,778,-0.10664095772073523,-0.1,1,402.0,943.0,0.0,165.0,0,0.4285620985149292,0.0
779,779,0.3039370791239977,0.3,0,436.0,602.0,0.0,152.0,1,0.41578056332421653,0.0
780,780,-0.7947548294367066,-0.8,1,417.0,905.0,1.0,118.0,1,0.9147648093272568,0.0
781,781,0.7006336315492434,0.7,0,268.0,995.0,0.0,107.0,1,0.2958933767612453,0.0
782,782,0.3835594177983763,0.4,0,305.0,830.0,0.0,225.0,1,0.6633268762706865,0.0
783,783,-0.8621084902488814,-0.9,1,327.0,953.0,1.0,70.0,1,0.49352104388673546,0.0
784,784,-0.6372987912989567,-0.6,1,453.0,771.0,1.0,156.0,1,0.16568574457093516,0.0
785,785,-0.9789061893180149,-1.0,1,378.0,833.0,1.0,139.0,1,0.9408302997747485,0.0
786,786,0.9542603611461267,1.0,0,271.0,659.0,0.0,190.0,1,0.8955262204159434,0.0
787,787,0.47400027992006355,0.5,0,345.0,918.0,0.0,267.0,1,0.887935032659698,0.0
788,788,-0.15525354785607637,-0.2,1,362.0,775.0,0.0,473.0,0,0.9994618296670537,0.0
789,789,-0.6424870417075692,-0.6,1,386.0,983.0,1.0,411.0,1,0.9603091376156546,0.0
790,790,0.3496896357224395,0.3,0,433.0,857.0,0.0,170.0,1,0.45033559730923445,0.0
791,791,-0.43236685441061473,-0.4,1,368.0,603.0,1.0,209.0,1,0.5189411228589501,0.0
792,792,-0.8399191562634452,-0.8,1,485.0,776.0,1.0,149.0,1,0.5753427600860646,0.0
793,793,0.7948933515898353,0.8,0,482.0,906.0,0.0,92.0,1,0.7050324176892454,0.0
794,794,-0.13814276915240153,-0.1,1,327.0,863.0,1.0,390.0,1,0.1682908007794156,0.0
795,795,-0.7124400831315041,-0.7,1,378.0,953.0,1.0,359.0,1,0.9023453972790444,0.0
796,796,0.0358685534826817,0.0,0,493.0,936.0,0.0,581.0,1,0.6497134112707327,0.0
797,797,-0.9988087621002157,-1.0,1,443.0,975.0,1.0,142.0,1,0.6959124158890995,0.0
798,798,-0.7688287855904157,-0.8,1,255.0,763.0,1.0,242.0,1,0.6984397446109754,0.0
799,799,0.9150584574491369,0.9,0,311.0,723.0,0.0,116.0,1,0.545666398227041,0.0
800,800,-0.43087849866069416,-0.4,1,357.0,715.0,1.0,188.0,1,0.43189811971757397,0.0
801,801,-0.5358960493926264,-0.5,1,263.0,501.0,1.0,166.0,1,0.18851354275044324,0.0
802,802,0.9049543234771331,0.9,0,402.0,997.0,0.0,181.0,1,0.8992036116445223,0.0
803,803,0.11412763047097885,0.1,0,346.0,813.0,0.0,161.0,1,0.8004593221979158,0.0
804,804,0.6211936860486058,0.6,0,480.0,541.0,0.0,69.0,1,0.2515906701272721,0.0
805,805,-0.5225235078939126,-0.5,1,274.0,929.0,1.0,277.0,1,0.5690022239115438,0.0
806,806,-0.7577634667338582,-0.8,1,307.0,779.0,1.0,74.0,1,0.43865686170283613,0.0
807,807,-0.012090426544879351,-0.0,1,300.0,562.0,0.0,448.0,0,0.5214859348440893,0.0
808,808,0.8889838136064614,0.9,0,287.0,631.0,0.0,222.0,1,0.9443544342835384,0.0
809,809,0.5740959111416479,0.6,0,353.0,516.0,0.0,141.0,1,0.3526104945865308,0.0
810,810,0.8866831642454656,0.9,0,427.0,663.0,0.0,140.0,1,0.5528060773544641,0.0
811,811,-0.6790964472780245,-0.7,1,282.0,977.0,1.0,151.0,1,0.31475408258639875,0.0
812,812,0.39314741634463957,0.4,0,309.0,720.0,0.0,171.0,1,0.7902209406244817,0.0
813,813,0.8742020803190975,0.9,0,472.0,822.0,0.0,96.0,1,0.20540146950938265,0.0
814,814,-0.07731845059351405,-0.1,1,432.0,562.0,0.0,546.0,0,0.8083830548237004,0.0
815,815,0.6213055254921747,0.6,0,494.0,635.0,0.0,191.0,1,0.752590313102954,0.0
816,816,-0.27541780349765754,-0.3,1,496.0,674.0,1.0,200.0,1,0.34301013751326626,0.0
817,817,0.29865904910854213,0.3,0,361.0,850.0,0.0,119.0,1,0.3984517424866658,0.0
818,818,0.8901528048527807,0.9,0,349.0,759.0,0.0,3892.0,1,0.11086945568765377,0.0
819,819,0.6057463534418845,0.6,0,302.0,621.0,0.0,107.0,1,0.1660853825767215,0.0
820,820,-0.5371020959508159,-0.5,1,296.0,785.0,1.0,99.0,1,0.9212653943722751,0.0
821,821,0.4026884029909863,0.4,0,460.0,875.0,0.0,335.0,1,0.9733573944593585,0.0
822,822,-0.9164254409599586,-0.9,1,390.0,660.0,1.0,3700.0,1,0.11111146084678838,0.0
823,823,-0.6471667738436071,-0.6,1,414.0,686.0,1.0,210.0,1,0.6925112678025689,0.0
824,824,0.8217962334188202,0.8,0,401.0,840.0,0.0,209.0,1,0.9119973083787798,0.0
825,825,-0.38180552869701057,-0.4,1,328.0,523.0,1.0,629.0,1,0.5721752993396461,0.0
826,826,0.07876349943601557,0.1,0,309.0,586.0,0.0,155.0,1,0.4101017662390727,0.0
827,827,-0.9490788273634492,-0.9,1,258.0,531.0,1.0,231.0,1,0.8235499846820065,0.0
828,828,0.2671403238472758,0.3,0,301.0,806.0,0.0,43.0,1,0.3269879802976231,0.0
829,829,0.14291622175543295,0.1,0,317.0,764.0,0.0,139.0,1,0.40882833192431955,0.0
830,830,-0.910159352225538,-0.9,1,466.0,680.0,1.0,84.0,1,0.4349630927642325,0.0
831,831,0.06611332848846163,0.1,0,349.0,537.0,0.0,224.0,1,0.349495109888269,0.0
832,832,-0.6558235406315593,-0.7,1,470.0,917.0,1.0,233.0,1,0.8575522976626446,0.0
833,833,0.26422032873288503,0.3,0,414.0,942.0,0.0,414.0,1,0.9380287243488974,0.0
834,834,-0.7537345371870301,-0.8,1,452.0,884.0,1.0,154.0,1,0.415483165256621,0.0
835,835,-0.09767180744127102,-0.1,1,271.0,769.0,1.0,240.0,1,0.26447648196418067,0.0
836,836,-0.4461602064482655,-0.4,1,268.0,594.0,1.0,438.0,1,0.9817158317387931,0.0
837,837,-0.4046561304015226,-0.4,1,359.0,535.0,1.0,1966.0,1,0.1275010711721365,0.0
838,838,-0.08602522554620906,-0.1,1,433.0,853.0,0.0,234.0,0,0.7344096588386835,0.0
839,839,0.8557940211124695,0.9,0,303.0,626.0,0.0,91.0,1,0.174124795432327,0.0
840,840,0.2881400075129641,0.3,0,299.0,655.0,0.0,266.0,1,0.8995237387064771,0.0
841,841,0.918765716201019,0.9,0,382.0,701.0,0.0,47.0,1,0.42758020454160584,0.0
842,842,0.8278483686636746,0.8,0,387.0,652.0,0.0,51.0,1,0.25812086873160905,0.0
843,843,0.9061566588467156,0.9,0,396.0,960.0,0.0,44.0,1,0.4492166331769243,0.0
844,844,-0.6933948694914438,-0.7,1,406.0,771.0,1.0,243.0,1,0.15772492755908332,0.0
845,845,-0.9071891360358335,-0.9,1,446.0,618.0,1.0,96.0,1,0.8562284262337475,0.0
846,846,0.7216050589495968,0.7,0,311.0,642.0,0.0,137.0,1,0.25054618260005057,0.0
847,847,-0.838692743489047,-0.8,1,300.0,627.0,1.0,113.0,1,0.526885615069771,0.0
848,848,-0.3269221561548734,-0.3,1,433.0,824.0,1.0,563.0,1,0.8928242093589611,0.0
849,849,0.013431718403928539,0.0,0,267.0,571.0,0.0,72.0,1,0.457407761923167,0.0
850,850,0.10401988974653009,0.1,0,439.0,736.0,0.0,235.0,1,0.8150091633283882,0.0
851,851,0.07873947121414848,0.1,0,413.0,970.0,0.0,627.0,1,0.215867401861223,0.0
852,852,0.4253769286179121,0.4,0,491.0,936.0,0.0,153.0,1,0.5815941308970256,0.0
853,853,-0.6886612073271026,-0.7,1,331.0,826.0,1.0,103.0,1,0.1830906813498615,0.0
854,854,0.4039669376913124,0.4,0,418.0,557.0,0.0,365.0,1,0.9359840873402022,0.0
855,855,-0.22312484884463823,-0.2,1,433.0,574.0,1.0,163.0,1,0.42035348788401306,0.0
856,856,-0.14161949121955675,-0.1,1,479.0,646.0,1.0,265.0,1,0.6481326438899714,0.0
857,857,-0.819080773326859,-0.8,1,441.0,707.0,1.0,122.0,1,0.7205238313790249,0.0
858,858,-0.5874218189043778,-0.6,1,274.0,777.0,1.0,159.0,1,0.9938296004514764,0.0
859,859,-0.6220876379920364,-0.6,1,261.0,735.0,1.0,544.0,1,0.1453034093169074,0.0
860,860,-0.07171276935447013,-0.1,1,297.0,624.0,1.0,149.0,1,0.7485436529323367,0.0
861,861,-0.5254832445982622,-0.5,1,402.0,836.0,1.0,452.0,1,0.14336318946582294,0.0
862,862,-0.4536564437577242,-0.5,1,304.0,648.0,1.0,158.0,1,0.6207320671553769,0.0
863,863,0.3406145211890086,0.3,0,342.0,692.0,0.0,376.0,1,0.923426684969859,0.0
864,864,0.9017309750058595,0.9,0,254.0,660.0,0.0,36.0,1,0.8285595902407794,0.0
865,865,-0.30257118572209185,-0.3,1,479.0,530.0,1.0,101.0,1,0.32027382720416986,0.0
866,866,-0.7339594704898373,-0.7,1,494.0,766.0,1.0,190.0,1,0.6239423209851022,0.0
867,867,0.18270592904534144,0.2,0,485.0,912.0,1.0,523.0,0,0.9426184622421053,0.0
868,868,-0.15572204240233534,-0.2,1,359.0,962.0,1.0,269.0,1,0.3784863995938966,0.0
869,869,-0.04421858840255277,-0.0,1,354.0,619.0,0.0,307.0,0,0.7768697853296513,0.0
870,870,0.3968517186056759,0.4,0,259.0,717.0,0.0,264.0,1,0.49355911927146945,0.0
871,871,-0.5522220989339655,-0.6,1,278.0,951.0,1.0,101.0,1,0.2796037269059131,0.0
872,872,0.4946818687965642,0.5,0,450.0,622.0,0.0,98.0,1,0.38707426074990947,0.0
873,873,-0.27293863404173835,-0.3,1,336.0,529.0,1.0,115.0,1,0.22680083813252144,0.0
874,874,-0.4396477740221114,-0.4,1,303.0,781.0,1.0,186.0,1,0.17324608147867726,0.0
875,875,0.6322770522400458,0.6,0,334.0,844.0,0.0,102.0,1,0.6233212515762472,0.0
876,876,0.08640343444178922,0.1,0,251.0,848.0,0.0,3901.0,1,0.12545533565229885,0.0
877,877,0.49507695056161727,0.5,0,387.0,819.0,0.0,104.0,1,0.28174293911838993,0.0
878,878,-0.991834189162287,-1.0,1,329.0,706.0,1.0,105.0,1,0.3448196446941341,0.0
879,879,0.11341083805943386,0.1,0,279.0,936.0,1.0,165.0,0,0.6826165193748656,0.0
880,880,-0.5336833525078446,-0.5,1,356.0,804.0,1.0,160.0,1,0.7270151794777668,0.0
881,881,-0.9041770591934406,-0.9,1,339.0,834.0,1.0,57.0,1,0.5068861583966823,0.0
882,882,-0.136721257437169,-0.1,1,259.0,614.0,1.0,587.0,1,0.16709033433238185,0.0
883,883,0.7719714135793729,0.8,0,396.0,678.0,0.0,106.0,1,0.5614058220823631,0.0
884,884,0.5044826747303479,0.5,0,334.0,742.0,0.0,224.0,1,0.8379012430540901,0.0
885,885,0.555734080564098,0.6,0,479.0,681.0,0.0,130.0,1,0.40673852975734526,0.0
886,886,0.776766527296683,0.8,0,484.0,778.0,0.0,58.0,1,0.28858255912594627,0.0
887,887,-0.4320844491408675,-0.4,1,400.0,791.0,1.0,119.0,1,0.5771815334081563,0.0
888,888,0.4224881493196784,0.4,0,481.0,669.0,0.0,240.0,1,0.42568673470245755,0.0
889,889,0.008676065266306265,0.0,0,472.0,981.0,1.0,347.0,0,0.3373879363338227,0.0
890,890,-0.3304177065146474,-0.3,1,434.0,769.0,1.0,197.0,1,0.7005666897367278,0.0
891,891,0.7876272995098796,0.8,0,497.0,641.0,0.0,132.0,1,0.190981018530962,0.0
892,892,0.18384169173432663,0.2,0,273.0,871.0,0.0,166.0,1,0.570607841404066,0.0
893,893,0.5167343903695398,0.5,0,364.0,639.0,0.0,187.0,1,0.3293976574705889,0.0
894,894,-0.8474795821480892,-0.8,1,478.0,943.0,1.0,99.0,1,0.6489412382594382,0.0
895,895,0.8240559481904297,0.8,0,314.0,600.0,0.0,146.0,1,0.7113341856415177,0.0
896,896,0.18188992526533143,0.2,0,288.0,700.0,0.0,292.0,1,0.7655600506354272,0.0
897,897,-0.41805575310478216,-0.4,1,337.0,518.0,1.0,95.0,1,0.3518326998836552,0.0
898,898,-0.9317659188060978,-0.9,1,263.0,660.0,1.0,187.0,1,0.6461370221467828,0.0
899,899,-0.5556411929570935,-0.6,1,418.0,723.0,1.0,89.0,1,0.2645172069601469,0.0
900,900,-0.8519388453420957,-0.9,1,288.0,663.0,1.0,79.0,1,0.28184846876414926,0.0
901,901,0.25520222361576805,0.3,0,372.0,699.0,0.0,129.0,1,0.3744994888352059,0.0
902,902,-0.9187640655315814,-0.9,1,419.0,666.0,1.0,165.0,1,0.9205873498603071,0.0
903,903,0.41040029712147374,0.4,0,423.0,881.0,0.0,76.0,1,0.3184090281020522,0.0
904,904,-0.2198497624107465,-0.2,1,393.0,507.0,1.0,210.0,1,0.8229914589011924,0.0
905,905,0.8793110686818186,0.9,0,424.0,530.0,0.0,66.0,1,0.49178691790382156,0.0
906,906,0.4631495978146851,0.5,0,370.0,780.0,0.0,160.0,1,0.5210878857299687,0.0
907,907,0.3180787850972717,0.3,0,290.0,546.0,0.0,214.0,1,0.5692108092220487,0.0
908,908,-0.10600523043259469,-0.1,1,261.0,981.0,0.0,3758.0,0,0.1521273699021368,0.0
909,909,-0.9644225839397393,-1.0,1,294.0,639.0,1.0,97.0,1,0.21123127940031347,0.0
910,910,0.07751957066224247,0.1,0,348.0,681.0,1.0,461.0,0,0.851245151040194,0.0
911,911,-0.33377650445721896,-0.3,1,413.0,530.0,1.0,197.0,1,0.3332487110417501,0.0
912,912,-0.9359251683066678,-0.9,1,307.0,760.0,1.0,73.0,1,0.3384045742352222,0.0
913,913,-0.5029508984457187,-0.5,1,341.0,535.0,1.0,124.0,1,0.5159560240893054,0.0
914,914,-0.9255789087932529,-0.9,1,294.0,622.0,1.0,54.0,1,0.5743719759691989,0.0
915,915,0.6674562589159876,0.7,0,412.0,800.0,0.0,138.0,1,0.9086197915662702,0.0
916,916,0.4294134472800162,0.4,0,311.0,907.0,0.0,182.0,1,0.6306376727547243,0.0
917,917,0.874456949627461,0.9,0,440.0,767.0,0.0,313.0,1,0.912214767676253,0.0
918,918,-0.3567180348618795,-0.4,1,329.0,836.0,1.0,105.0,1,0.406663120277331,0.0
919,919,0.6313297192234226,0.6,0,443.0,956.0,0.0,91.0,1,0.42134024145530824,0.0
920,920,0.6762871321572719,0.7,0,406.0,954.0,0.0,270.0,1,0.15778108352714065,0.0
921,921,-0.15028889664977796,-0.2,1,256.0,865.0,0.0,249.0,0,0.6933229175821701,0.0
922,922,0.09392612617935647,0.1,0,429.0,894.0,0.0,397.0,1,0.6303320303100148,0.0
923,923,-0.031910952748738675,-0.0,1,336.0,665.0,0.0,3999.0,0,0.15170318584544243,0.0
924,924,-0.7941493504492103,-0.8,1,272.0,937.0,1.0,101.0,1,0.4126668470320588,0.0
925,925,-0.8371939981947192,-0.8,1,327.0,958.0,1.0,155.0,1,0.38791073639902174,0.0
926,926,0.10915086655272588,0.1,0,274.0,542.0,1.0,364.0,0,0.5124607941239855,0.0
927,927,-0.8816181252762356,-0.9,1,333.0,863.0,1.0,274.0,1,0.8813672599663687,0.0
928,928,0.9405415386034772,0.9,0,486.0,717.0,0.0,67.0,1,0.4521780876558389,0.0
929,929,0.8711517279746757,0.9,0,352.0,603.0,0.0,105.0,1,0.8039522807367209,0.0
930,930,0.7906097146285911,0.8,0,283.0,899.0,0.0,118.0,1,0.32193230112347004,0.0
931,931,0.5507112027486174,0.6,0,412.0,535.0,0.0,213.0,1,0.8616179827899771,0.0
932,932,-0.46632838808003374,-0.5,1,293.0,631.0,1.0,156.0,1,0.7674713946749094,0.0
933,933,0.8359734883432219,0.8,0,446.0,868.0,0.0,106.0,1,0.5079383142556348,0.0
934,934,-0.9537558696458659,-1.0,1,384.0,656.0,1.0,130.0,1,0.7747905476185089,0.0
935,935,-0.2583765680793264,-0.3,1,488.0,942.0,1.0,450.0,1,0.8793522993827296,0.0
936,936,0.856437543880789,0.9,0,269.0,827.0,0.0,254.0,1,0.9748596031927556,0.0
937,937,0.8426933103049419,0.8,0,299.0,842.0,0.0,89.0,1,0.3899106158457809,0.0
938,938,-0.7127811044094918,-0.7,1,314.0,657.0,1.0,79.0,1,0.31603848989951744,0.0
939,939,0.2842199646619441,0.3,0,278.0,677.0,0.0,175.0,1,0.32446749314280554,0.0
940,940,-0.4516880938577499,-0.5,1,415.0,810.0,1.0,135.0,1,0.3542457649845575,0.0
941,941,0.11132902380925058,0.1,0,457.0,818.0,0.0,435.0,1,0.9071902719783778,0.0
942,942,-0.20491896567146362,-0.2,1,300.0,910.0,1.0,120.0,1,0.6620347013867101,0.0
943,943,0.2556822109554857,0.3,0,375.0,609.0,0.0,206.0,1,0.24176765585851578,0.0
944,944,-0.577153835452068,-0.6,1,378.0,674.0,1.0,128.0,1,0.6759057322300861,0.0
945,945,0.8013624793664433,0.8,0,329.0,975.0,0.0,156.0,1,0.3976141182352255,0.0
946,946,0.4073727382988517,0.4,0,284.0,601.0,0.0,275.0,1,0.5719662677914576,0.0
947,947,-0.7255913492523054,-0.7,1,460.0,950.0,1.0,120.0,1,0.4211973986282006,0.0
948,948,0.8481158938008553,0.8,0,271.0,792.0,0.0,117.0,1,0.4861684773068533,0.0
949,949,0.5743450668721015,0.6,0,408.0,578.0,0.0,144.0,1,0.7457722378080054,0.0
950,950,0.01574083552710115,0.0,0,306.0,969.0,0.0,175.0,1,0.4860049281327611,0.0
951,951,-0.06069213201419066,-0.1,1,373.0,794.0,1.0,463.0,1,0.5145859329733005,0.0
952,952,0.5773146920505454,0.6,0,301.0,976.0,0.0,83.0,1,0.4100039059270566,0.0
953,953,0.646881374740004,0.6,0,415.0,660.0,0.0,145.0,1,0.7001024584037849,0.0
954,954,0.4691938897543164,0.5,0,378.0,955.0,0.0,257.0,1,0.1979323804310063,0.0
955,955,-0.23573357771786974,-0.2,1,326.0,538.0,1.0,396.0,1,0.9606216914695125,0.0
956,956,-0.28381179413940694,-0.3,1,319.0,887.0,1.0,404.0,1,0.83509744720773,0.0
957,957,-0.3231290569521461,-0.3,1,470.0,710.0,1.0,360.0,1,0.650977138317376,0.0
958,958,0.8666359506331476,0.9,0,295.0,831.0,0.0,134.0,1,0.14615529839321795,0.0
959,959,0.9374546072294685,0.9,0,483.0,663.0,0.0,154.0,1,0.23062150876725923,0.0
960,960,0.7253242195646179,0.7,0,478.0,981.0,0.0,151.0,1,0.4825175120586872,0.0
961,961,-0.8891980020896049,-0.9,1,489.0,769.0,1.0,212.0,1,0.8740778036021576,0.0
962,962,-0.28788729342368247,-0.3,1,416.0,740.0,1.0,204.0,1,0.759387606967553,0.0
963,963,-0.9782166134010291,-1.0,1,456.0,863.0,1.0,341.0,1,0.12070439695910304,0.0
964,964,-0.25724888673829294,-0.3,1,463.0,796.0,1.0,161.0,1,0.718110541986622,0.0
965,965,-0.3911166857255244,-0.4,1,386.0,918.0,1.0,126.0,1,0.5722560401823942,0.0
966,966,-0.335912828741159,-0.3,1,251.0,586.0,1.0,153.0,1,0.48661068692556,0.0
967,967,-0.9690187651010673,-1.0,1,300.0,881.0,1.0,79.0,1,0.24148252545610605,0.0
968,968,0.27233222156165127,0.3,0,489.0,815.0,0.0,446.0,1,0.9365051840602552,0.0
969,969,-0.4792047837067346,-0.5,1,401.0,791.0,1.0,298.0,1,0.9398596087134842,0.0
970,970,0.2983247218440528,0.3,0,304.0,744.0,0.0,162.0,1,0.44195846648886516,0.0
971,971,-0.1488480321230221,-0.1,1,280.0,669.0,1.0,181.0,1,0.8146439708591356,0.0
972,972,0.7390640176988148,0.7,0,451.0,552.0,0.0,127.0,1,0.5949918140511009,0.0
973,973,-0.6888674328795543,-0.7,1,378.0,860.0,1.0,152.0,1,0.5644293562422295,0.0
974,974,0.018452386431674128,0.0,0,349.0,658.0,1.0,153.0,0,0.40000220453933333,0.0
975,975,-0.7953574436394624,-0.8,1,346.0,853.0,1.0,191.0,1,0.16157992275830102,0.0
976,976,0.3701337088524832,0.4,0,437.0,797.0,0.0,286.0,1,0.9194961513641448,0.0
977,977,0.7997167803557934,0.8,0,490.0,883.0,0.0,127.0,1,0.9439012445584869,0.0
978,978,0.18391837972384417,0.2,0,292.0,794.0,0.0,284.0,1,0.7132629434773363,0.0
979,979,-0.9622173830802241,-1.0,1,473.0,722.0,1.0,95.0,1,0.7300702043086283,0.0
980,980,0.6652819698311603,0.7,0,462.0,900.0,0.0,118.0,1,0.47565195795732584,0.0
981,981,0.6133790712213583,0.6,0,419.0,503.0,0.0,358.0,1,0.9455491811332072,0.0
982,982,0.6946262719546192,0.7,0,281.0,780.0,0.0,159.0,1,0.7883482254019133,0.0
983,983,0.3653000274569951,0.4,0,272.0,646.0,0.0,192.0,1,0.858636291893799,0.0
984,984,-0.21177598027753475,-0.2,1,356.0,895.0,1.0,179.0,1,0.3812096431496328,0.0
985,985,-0.6878045399649677,-0.7,1,498.0,756.0,1.0,246.0,1,0.7608127911040645,0.0
986,986,-0.39272523431669004,-0.4,1,282.0,521.0,1.0,247.0,1,0.7494005077187234,0.0
987,987,0.23926421706803946,0.2,0,357.0,902.0,0.0,231.0,1,0.7441937038975027,0.0
988,988,0.43921778023369074,0.4,0,446.0,632.0,0.0,152.0,1,0.8675076237783781,0.0
989,989,0.2639865824826624,0.3,0,272.0,875.0,0.0,123.0,1,0.4484105900271357,0.0
990,990,-0.7754052406448875,-0.8,1,474.0,663.0,1.0,3863.0,1,0.10899049085254665,0.0
991,991,-0.4430780811025685,-0.4,1,402.0,817.0,1.0,211.0,1,0.6155412471884021,0.0
992,992,-0.08417316832263744,-0.1,1,484.0,598.0,1.0,358.0,1,0.2281258239983516,0.0
993,993,0.9218180262450275,0.9,0,340.0,573.0,0.0,287.0,1,0.12785523621920583,0.0
994,994,-0.34149188181960977,-0.3,1,391.0,597.0,0.0,172.0,0,0.840969520400519,0.0
995,995,-0.32057795290220215,-0.3,1,265.0,752.0,1.0,153.0,1,0.4587612944576298,0.0
996,996,-0.6672193828355693,-0.7,1,497.0,977.0,1.0,86.0,1,0.3192814139426823,0.0
997,997,0.16050541936814633,0.2,0,297.0,899.0,0.0,84.0,1,0.39032521774306417,0.0
998,998,0.2628210628511849,0.3,0,302.0,824.0,0.0,214.0,1,0.6124015399008561,0.0
999,999,0.6178105534664711,0.6,0,376.0,794.0,0.0,160.0,1,0.5851590574516523,0.0
1000,1000,0.2371911932440014,0.2,0,425.0,538.0,1.0,517.0,0,0.9705767557752527,0.0
1001,1001,0.24182223325649255,0.2,0,449.0,745.0,0.0,306.0,1,0.2795695890875203,0.0
1002,1002,-0.20677006558968203,-0.2,1,484.0,605.0,1.0,171.0,1,0.3757160622160365,0.0
1003,1003,0.906829976201146,0.9,0,382.0,737.0,0.0,131.0,1,0.4677895718993851,0.0
1004,1004,-0.23212050316665178,-0.2,1,406.0,618.0,1.0,726.0,1,0.9038133094727264,0.0
1005,1005,0.5771973434205515,0.6,0,390.0,761.0,0.0,89.0,1,0.9105877583437725,0.0
1006,1006,-0.7931097665297506,-0.8,1,439.0,705.0,1.0,86.0,1,0.5588629947168499,0.0
1007,1007,-0.9528175257580331,-1.0,1,327.0,878.0,1.0,295.0,1,0.13000367535635807,0.0
1008,1008,0.7653985812665614,0.8,0,288.0,977.0,0.0,95.0,1,0.25357014534481426,0.0
1009,1009,0.4360375560605161,0.4,0,253.0,724.0,0.0,483.0,1,0.9040830451578168,0.0
1010,1010,-0.6057424641835119,-0.6,1,429.0,503.0,1.0,4068.0,1,0.10466143513221512,0.0
1011,1011,-0.247039635049368,-0.2,1,256.0,668.0,1.0,4076.0,1,0.11656122674765834,0.0
1012,1012,0.8646803560407985,0.9,0,252.0,610.0,0.0,108.0,1,0.4615860073618103,0.0
1013,1013,-0.21462517976531514,-0.2,1,294.0,778.0,1.0,228.0,1,0.325924587997788,0.0
1014,1014,-0.3778683513641503,-0.4,1,336.0,779.0,1.0,125.0,1,0.6276595108463827,0.0
1015,1015,-0.025985473679591475,-0.0,1,276.0,523.0,0.0,311.0,0,0.41298508428959024,0.0
1016,1016,-0.4156856549874821,-0.4,1,445.0,954.0,1.0,431.0,1,0.8972920242620499,0.0
1017,1017,0.9161194736062164,0.9,0,402.0,638.0,0.0,160.0,1,0.7323627031426224,0.0
1018,1018,0.6933325479483354,0.7,0,356.0,536.0,0.0,168.0,1,0.5006761391819986,0.0
1019,1019,-0.4165206146142264,-0.4,1,439.0,943.0,1.0,148.0,1,0.3932287283807636,0.0
1020,1020,-0.12472608238142269,-0.1,1,460.0,758.0,1.0,222.0,1,0.8989340896325418,0.0
1021,1021,0.6236190153239936,0.6,0,484.0,580.0,0.0,476.0,1,0.9875794985104632,0.0
1022,1022,-0.38512630467142017,-0.4,1,320.0,640.0,1.0,280.0,1,0.9604415168723307,0.0
1023,1023,-0.08140164247039117,-0.1,1,488.0,701.0,1.0,211.0,1,0.2376045000652613,0.0
1024,1024,-0.03222262523502106,-0.0,1,392.0,775.0,1.0,363.0,1,0.7061939740525383,0.0
1025,1025,0.09869188933743844,0.1,0,420.0,964.0,0.0,256.0,1,0.43420600977932144,0.0
1026,1026,0.5215849985203092,0.5,0,416.0,649.0,0.0,145.0,1,0.5381868657840727,0.0
1027,1027,-0.9671166597943293,-1.0,1,400.0,583.0,1.0,167.0,1,0.49212746109931904,0.0
1028,1028,0.558655510025031,0.6,0,365.0,722.0,0.0,173.0,1,0.6684485551803457,0.0
1029,1029,0.8976859727603008,0.9,0,372.0,746.0,0.0,82.0,1,0.300497590762341,0.0
1030,1030,-0.7802939239519529,-0.8,1,398.0,905.0,1.0,107.0,1,0.5067359776424373,0.0
1031,1031,-0.9401445325464011,-0.9,1,439.0,730.0,1.0,181.0,1,0.8611144442743763,0.0
1032,1032,-0.9653927012044456,-1.0,1,267.0,829.0,1.0,184.0,1,0.8773597060076367,0.0
1033,1033,0.38768147739180314,0.4,0,398.0,986.0,0.0,66.0,1,0.24476803222529692,0.0
1034,1034,-0.6112121086386226,-0.6,1,297.0,734.0,1.0,179.0,1,0.6389185213215468,0.0
1035,1035,0.7561567233928261,0.8,0,297.0,587.0,0.0,76.0,1,0.2559456633910451,0.0
1036,1036,0.13683333076199844,0.1,0,323.0,585.0,0.0,422.0,1,0.3868325429097992,0.0
1037,1037,-0.9006481949922767,-0.9,1,276.0,868.0,1.0,676.0,1,0.12330048103859063,0.0
1038,1038,0.6444027796144276,0.6,0,297.0,677.0,0.0,116.0,1,0.1886636706333465,0.0
1039,1039,-0.14392136777381292,-0.1,1,252.0,880.0,0.0,148.0,0,0.9645602407187086,0.0
1040,1040,-0.7724180666874729,-0.8,1,323.0,892.0,1.0,115.0,1,0.582590111444101,0.0
1041,1041,-0.10349453304901668,-0.1,1,370.0,818.0,1.0,272.0,1,0.2907755130191776,0.0
1042,1042,-0.05916260790762107,-0.1,1,268.0,782.0,1.0,210.0,1,0.5941359830819133,0.0
1043,1043,0.4316281682934653,0.4,0,338.0,603.0,0.0,379.0,1,0.9682892904393033,0.0
1044,1044,0.5023906655128576,0.5,0,480.0,770.0,0.0,180.0,1,0.6543149285500665,0.0
1045,1045,-0.5820642793823823,-0.6,1,304.0,596.0,1.0,140.0,1,0.2167549477933634,0.0
1046,1046,-0.5765452127189812,-0.6,1,382.0,752.0,1.0,86.0,1,0.3353084208116458,0.0
1047,1047,0.1629539248949683,0.2,0,319.0,767.0,0.0,94.0,1,0.28210448762118456,0.0
1048,1048,-0.5965670123791857,-0.6,1,296.0,727.0,1.0,157.0,1,0.6843876965155206,0.0
1049,1049,0.35712359647827663,0.4,0,401.0,876.0,0.0,153.0,1,0.6043271376916728,0.0
1050,1050,0.6700162149710767,0.7,0,291.0,674.0,0.0,355.0,1,0.18223866009258777,0.0
1051,1051,0.868044714215223,0.9,0,301.0,630.0,0.0,349.0,1,0.9295742229008813,0.0
1052,1052,0.874422584121137,0.9,0,458.0,587.0,0.0,125.0,1,0.7295958348854792,0.0
1053,1053,-0.7838297100967098,-0.8,1,485.0,882.0,1.0,143.0,1,0.7900716255335176,0.0
1054,1054,0.8873238977753302,0.9,0,419.0,575.0,0.0,86.0,1,0.23117733845515298,0.0
1055,1055,0.2875912226823407,0.3,0,335.0,922.0,0.0,303.0,1,0.8154453178690715,0.0
1056,1056,-0.8565339971447019,-0.9,1,475.0,695.0,1.0,190.0,1,0.4791675523579555,0.0
1057,1057,0.4361587898731878,0.4,0,314.0,629.0,0.0,1077.0,1,0.14770566491916481,0.0
1058,1058,-0.5220292212758959,-0.5,1,306.0,822.0,1.0,222.0,1,0.9131810076919188,0.0
1059,1059,0.5731388785149412,0.6,0,456.0,607.0,0.0,167.0,1,0.7217460388009908,0.0
1060,1060,0.7179275717931248,0.7,0,268.0,997.0,0.0,165.0,1,0.7450702332778817,0.0
1061,1061,-0.993009917896915,-1.0,1,467.0,594.0,1.0,139.0,1,0.3870974871402505,0.0
1062,1062,0.4129954991737972,0.4,0,263.0,561.0,0.0,136.0,1,0.46665109534204885,0.0
1063,1063,0.9553055963274892,1.0,0,350.0,912.0,0.0,88.0,1,0.3232145340598918,0.0
1064,1064,0.04178684026803392,0.0,0,486.0,624.0,0.0,240.0,1,0.3749164094309373,0.0
1065,1065,-0.048237948735155856,-0.0,1,252.0,835.0,0.0,243.0,0,0.7013482701021071,0.0
1066,1066,-0.1685091248279904,-0.2,1,257.0,810.0,1.0,203.0,1,0.7118672797372306,0.0
1067,1067,-0.23211347381864678,-0.2,1,365.0,677.0,1.0,208.0,1,0.6345753560254336,0.0
1068,1068,-0.286275491847811,-0.3,1,430.0,957.0,1.0,133.0,1,0.5598688394933903,0.0
1069,1069,-0.44912287924445216,-0.4,1,399.0,558.0,1.0,133.0,1,0.7400510981109707,0.0
1070,1070,0.41506052091192336,0.4,0,356.0,506.0,0.0,208.0,1,0.40820964224731315,0.0
1071,1071,-0.16800035586742879,-0.2,1,366.0,504.0,1.0,170.0,1,0.3016883773358253,0.0
1072,1072,-0.20378273368625943,-0.2,1,278.0,845.0,0.0,257.0,0,0.5243141929690784,0.0
1073,1073,0.16714341192372406,0.2,0,395.0,973.0,0.0,202.0,1,0.697867330302396,0.0
1074,1074,0.6860750972731824,0.7,0,396.0,960.0,0.0,114.0,1,0.47311790806830645,0.0
1075,1075,0.7636672046624033,0.8,0,382.0,804.0,0.0,74.0,1,0.3318118815479611,0.0
1076,1076,-0.04914573273235234,-0.0,1,334.0,781.0,0.0,245.0,0,0.6617867308393517,0.0
1077,1077,-0.08300707771153837,-0.1,1,327.0,942.0,1.0,151.0,1,0.40148882032411737,0.0
1078,1078,0.07028587946483178,0.1,0,281.0,560.0,0.0,119.0,1,0.7625108999972032,0.0
1079,1079,0.799729390751432,0.8,0,392.0,920.0,0.0,138.0,1,0.7478658378996866,0.0
1080,1080,-0.8406738707445669,-0.8,1,408.0,567.0,1.0,95.0,1,0.815308279747668,0.0
1081,1081,-0.8209738113442862,-0.8,1,361.0,567.0,1.0,192.0,1,0.7907115413651158,0.0
1082,1082,-0.558794238034763,-0.6,1,356.0,861.0,1.0,273.0,1,0.1626271292341232,0.0
1083,1083,0.5165246360109728,0.5,0,446.0,745.0,0.0,219.0,1,0.6408249124253501,0.0
1084,1084,0.08776434076775708,0.1,0,436.0,736.0,0.0,3828.0,1,0.11348510239513349,0.0
1085,1085,-0.1131376502362853,-0.1,1,377.0,838.0,1.0,195.0,1,0.36948386219090057,0.0
1086,1086,0.9026266116057795,0.9,0,284.0,757.0,0.0,319.0,1,0.9260302095006393,0.0
1087,1087,-0.7801251011145298,-0.8,1,270.0,643.0,1.0,47.0,1,0.2742842325768285,0.0
1088,1088,0.8238981340331462,0.8,0,433.0,902.0,0.0,155.0,1,0.736154990412756,0.0
1089,1089,-0.040084400403656906,-0.0,1,350.0,617.0,1.0,283.0,1,0.5476838898358525,0.0
1090,1090,-0.6884849278623855,-0.7,1,258.0,927.0,1.0,165.0,1,0.8331613257716841,0.0
1091,1091,0.896464151041507,0.9,0,425.0,582.0,0.0,93.0,1,0.23289125585783263,0.0
1092,1092,-0.11258297189084465,-0.1,1,359.0,861.0,1.0,190.0,1,0.862539718243644,0.0
1093,1093,0.5959968106387044,0.6,0,377.0,656.0,0.0,3967.0,1,0.10142572697492071,0.0
1094,1094,-0.4718531175304199,-0.5,1,390.0,767.0,1.0,223.0,1,0.752551126112858,0.0
1095,1095,0.1253139593686401,0.1,0,326.0,783.0,0.0,431.0,1,0.9528990842598886,0.0
1096,1096,0.8654369557162016,0.9,0,340.0,788.0,0.0,132.0,1,0.7873459497356808,0.0
1097,1097,-0.22645942438944067,-0.2,1,356.0,797.0,1.0,137.0,1,0.3770732866033135,0.0
1098,1098,0.4764546871950486,0.5,0,282.0,661.0,0.0,1807.0,1,0.127365804125386,0.0
1099,1099,-0.5142667730372237,-0.5,1,421.0,970.0,1.0,139.0,1,0.3152564659126341,0.0
1100,1100,0.1689957797130246,0.2,0,376.0,833.0,0.0,161.0,1,0.6637552727371031,0.0
1101,1101,0.8296732485029681,0.8,0,379.0,536.0,0.0,175.0,1,0.9294316261605216,0.0
1102,1102,0.8491160472358688,0.8,0,470.0,983.0,0.0,117.0,1,0.8761678565403748,0.0
1103,1103,0.6071448119066543,0.6,0,495.0,918.0,0.0,3587.0,1,0.12087505008421984,0.0
1104,1104,-0.5198480340858747,-0.5,1,319.0,669.0,1.0,192.0,1,0.5757001233140029,0.0
1105,1105,0.5658321222397291,0.6,0,332.0,598.0,0.0,130.0,1,0.6660299146952657,0.0
1106,1106,-0.11767349897918189,-0.1,1,294.0,905.0,1.0,201.0,1,0.326872622894449,0.0
1107,1107,0.6497782385060047,0.6,0,350.0,839.0,0.0,261.0,1,0.8957454390339744,0.0
1108,1108,0.5953487501896018,0.6,0,487.0,860.0,0.0,53.0,1,0.8765375882937366,0.0
1109,1109,-0.9041391138921664,-0.9,1,390.0,615.0,1.0,155.0,1,0.5688385504490692,0.0
1110,1110,-0.9672513864810561,-1.0,1,269.0,803.0,1.0,178.0,1,0.909204440870217,0.0
1111,1111,0.8914613742729836,0.9,0,416.0,520.0,0.0,264.0,1,0.12848151906518748,0.0
1112,1112,0.0009542328271634481,0.0,0,280.0,866.0,1.0,134.0,0,0.3801559397479384,0.0
1113,1113,0.33092333435688803,0.3,0,367.0,664.0,0.0,179.0,1,0.4097199646573061,0.0
1114,1114,-0.24469307988262856,-0.2,1,388.0,861.0,1.0,121.0,1,0.5000873414862147,0.0
1115,1115,-0.2540476066939248,-0.3,1,428.0,687.0,1.0,385.0,1,0.9438990975490029,0.0
1116,1116,-0.3595218315736668,-0.4,1,386.0,593.0,1.0,141.0,1,0.6603443721131086,0.0
1117,1117,0.10136946842114924,0.1,0,485.0,542.0,0.0,123.0,1,0.21480863764656938,0.0
1118,1118,-0.2732790237361875,-0.3,1,317.0,670.0,1.0,143.0,1,0.5312692829918367,0.0
1119,1119,-0.4423450131645903,-0.4,1,430.0,639.0,1.0,121.0,1,0.3327294762360651,0.0
1120,1120,0.39152467122241275,0.4,0,375.0,672.0,0.0,93.0,1,0.814168941839128,0.0
1121,1121,0.8704287778941047,0.9,0,484.0,617.0,0.0,89.0,1,0.25455928409247053,0.0
1122,1122,-0.6601839801478155,-0.7,1,452.0,656.0,1.0,132.0,1,0.41009577896188665,0.0
1123,1123,-0.6743969934942435,-0.7,1,418.0,809.0,1.0,123.0,1,0.9019682828082258,0.0
1124,1124,0.6738166974961328,0.7,0,271.0,937.0,0.0,122.0,1,0.42648300980086695,0.0
1125,1125,0.34252958556888835,0.3,0,269.0,671.0,0.0,140.0,1,0.313219067596813,0.0
1126,1126,0.9682849686001966,1.0,0,264.0,747.0,0.0,129.0,1,0.6570640428257598,0.0
1127,1127,-0.4615532327145151,-0.5,1,262.0,780.0,1.0,88.0,1,0.4237156695019001,0.0
1128,1128,0.5937909595110715,0.6,0,267.0,687.0,0.0,156.0,1,0.974873547867495,0.0
1129,1129,-0.11076570783098205,-0.1,1,472.0,884.0,1.0,204.0,1,0.5017182121669258,0.0
1130,1130,-0.4148859856072793,-0.4,1,305.0,786.0,1.0,99.0,1,0.43520329238883193,0.0
1131,1131,-0.44363407982243586,-0.4,1,414.0,728.0,1.0,128.0,1,0.8436312133115649,0.0
1132,1132,0.2600672360255447,0.3,0,443.0,832.0,0.0,135.0,1,0.5939361506555174,0.0
1133,1133,0.624422396165244,0.6,0,314.0,832.0,0.0,294.0,1,0.703916512024237,0.0
1134,1134,-0.7432177838701384,-0.7,1,425.0,589.0,1.0,146.0,1,0.5200772621274231,0.0
1135,1135,-0.15494302478708644,-0.2,1,313.0,950.0,0.0,447.0,0,0.9753374112272379,0.0
1136,1136,-0.1854913459955536,-0.2,1,402.0,858.0,1.0,220.0,1,0.4474532775994584,0.0
1137,1137,-0.42699475421874844,-0.4,1,394.0,753.0,1.0,223.0,1,0.8314093265947035,0.0
1138,1138,0.376356941963335,0.4,0,472.0,997.0,0.0,161.0,1,0.19920852915288806,0.0
1139,1139,0.11209530033810466,0.1,0,368.0,965.0,0.0,207.0,1,0.9586649641138049,0.0
1140,1140,0.9245646903582407,0.9,0,289.0,772.0,0.0,69.0,1,0.7465596572548305,0.0
1141,1141,0.040393627667013376,0.0,0,331.0,801.0,0.0,3868.0,1,0.10242283184011818,0.0
1142,1142,0.61202242901726,0.6,0,406.0,983.0,0.0,101.0,1,0.205341401554532,0.0
1143,1143,-0.2866989170844476,-0.3,1,471.0,726.0,1.0,113.0,1,0.20273985710305303,0.0
1144,1144,-0.4695083718349058,-0.5,1,316.0,856.0,1.0,178.0,1,0.7248421515329774,0.0
1145,1145,-0.4246745953872768,-0.4,1,429.0,505.0,1.0,296.0,1,0.8201198665236531,0.0
1146,1146,0.34235898470366144,0.3,0,492.0,711.0,0.0,107.0,1,0.5701273768509175,0.0
1147,1147,0.9235874427037087,0.9,0,396.0,806.0,0.0,128.0,1,0.6354245287534724,0.0
1148,1148,-0.3039673607584772,-0.3,1,365.0,531.0,1.0,104.0,1,0.45062165439916846,0.0
1149,1149,-0.3556840534763803,-0.4,1,471.0,921.0,1.0,138.0,1,0.671841459071703,0.0
1150,1150,-0.5115393786576783,-0.5,1,367.0,758.0,1.0,75.0,1,0.34915618151578776,0.0
1151,1151,-0.46003908988237807,-0.5,1,499.0,519.0,1.0,302.0,1,0.5105794902204911,0.0
1152,1152,-0.3469288022656447,-0.3,1,420.0,730.0,1.0,3850.0,1,0.10254871303464325,0.0
1153,1153,-0.5214455313340145,-0.5,1,458.0,673.0,1.0,139.0,1,0.37672966247258066,0.0
1154,1154,0.2604987659017717,0.3,0,325.0,759.0,0.0,3916.0,1,0.11005435577438757,0.0
1155,1155,0.32229814946684154,0.3,0,337.0,996.0,0.0,207.0,1,0.23603400652121417,0.0
1156,1156,-0.6992524595116196,-0.7,1,412.0,532.0,1.0,86.0,1,0.5030589311761913,0.0
1157,1157,0.8798040459563852,0.9,0,493.0,501.0,0.0,106.0,1,0.6397128294949733,0.0
1158,1158,0.31902715960918315,0.3,0,423.0,879.0,0.0,168.0,1,0.6030017036733004,0.0
1159,1159,0.6370185847939382,0.6,0,296.0,777.0,0.0,117.0,1,0.3298403825905374,0.0
1160,1160,-0.7308964060340193,-0.7,1,278.0,994.0,1.0,398.0,1,0.8706253783231788,0.0
1161,1161,-0.300325133969646,-0.3,1,307.0,833.0,1.0,290.0,1,0.758122657327372,0.0
1162,1162,-0.26215470099419025,-0.3,1,286.0,904.0,1.0,410.0,1,0.981881591174177,0.0
1163,1163,0.06263918943367441,0.1,0,363.0,892.0,0.0,335.0,1,0.2003348962130788,0.0
1164,1164,-0.7574481916595621,-0.8,1,303.0,676.0,1.0,161.0,1,0.5369677707911438,0.0
1165,1165,-0.7133434918484614,-0.7,1,360.0,703.0,1.0,117.0,1,0.44079464360792164,0.0
1166,1166,0.5029270649632553,0.5,0,401.0,822.0,0.0,177.0,1,0.4061301651383562,0.0
1167,1167,0.12596574306352326,0.1,0,455.0,814.0,0.0,101.0,1,0.6020998222035169,0.0
1168,1168,-0.20657194570029902,-0.2,1,306.0,860.0,1.0,174.0,1,0.6777827860672475,0.0
1169,1169,0.02116549794402589,0.0,0,255.0,713.0,0.0,782.0,1,0.3881493842745042,0.0
1170,1170,0.7705990729617456,0.8,0,450.0,911.0,0.0,299.0,1,0.9422211579176847,0.0
1171,1171,-0.2928105723440808,-0.3,1,442.0,639.0,1.0,349.0,1,0.39311546277501397,0.0
1172,1172,0.7431734113736177,0.7,0,258.0,632.0,0.0,100.0,1,0.616475995481396,0.0
1173,1173,-0.9716392044683839,-1.0,1,407.0,723.0,1.0,100.0,1,0.4151430499874147,0.0
1174,1174,-0.8627145995370669,-0.9,1,474.0,608.0,1.0,98.0,1,0.6050416844465731,0.0
1175,1175,-0.20328614063048978,-0.2,1,406.0,849.0,1.0,305.0,1,0.17428774726048565,0.0
1176,1176,0.3877339837480023,0.4,0,431.0,871.0,0.0,148.0,1,0.5188468517697855,0.0
1177,1177,0.8193479102428758,0.8,0,284.0,768.0,0.0,218.0,1,0.835878265871217,0.0
1178,1178,-0.9872576488054057,-1.0,1,402.0,794.0,1.0,154.0,1,0.7960252597705849,0.0
1179,1179,0.4682510210524893,0.5,0,475.0,536.0,0.0,149.0,1,0.37609328887671856,0.0
1180,1180,-0.5713211046003843,-0.6,1,460.0,541.0,1.0,3999.0,1,0.1092029786809667,0.0
1181,1181,-0.591964830043858,-0.6,1,387.0,966.0,1.0,87.0,1,0.23903690825354676,0.0
1182,1182,-0.6166820628540581,-0.6,1,417.0,558.0,1.0,85.0,1,0.7844601848014819,0.0
1183,1183,0.7012134874673319,0.7,0,292.0,812.0,0.0,66.0,1,0.2958486823731431,0.0
1184,1184,0.24634541894281026,0.2,0,475.0,941.0,0.0,244.0,1,0.8441581311607423,0.0
1185,1185,-0.6088595623219322,-0.6,1,454.0,667.0,1.0,279.0,1,0.9900975563304322,0.0
1186,1186,0.41054052672882757,0.4,0,492.0,508.0,0.0,520.0,1,0.914307566632724,0.0
1187,1187,-0.08998970620583657,-0.1,1,290.0,810.0,1.0,170.0,1,0.46113445755541616,0.0
1188,1188,-0.7647484589367441,-0.8,1,430.0,656.0,1.0,134.0,1,0.3630060172108285,0.0
1189,1189,-0.54445455934902,-0.5,1,338.0,549.0,1.0,233.0,1,0.7389460101743673,0.0
1190,1190,0.1649851649199885,0.2,0,494.0,620.0,0.0,176.0,1,0.25475971254692864,0.0
1191,1191,-0.2264343592498741,-0.2,1,466.0,940.0,1.0,304.0,1,0.4089110415047613,0.0
1192,1192,0.14231761499541085,0.1,0,317.0,715.0,0.0,198.0,1,0.4072872874917508,0.0
1193,1193,0.4379317429796017,0.4,0,398.0,501.0,0.0,181.0,1,0.44432554849074146,0.0
1194,1194,0.21259276600627963,0.2,0,295.0,567.0,0.0,88.0,1,0.3545002719880862,0.0
1195,1195,0.5041530497251572,0.5,0,349.0,584.0,0.0,257.0,1,0.8047728290050428,0.0
1196,1196,-0.005965383723629758,-0.0,1,475.0,867.0,0.0,178.0,0,0.8202795515822064,0.0
1197,1197,-0.646709512297301,-0.6,1,380.0,918.0,1.0,462.0,1,0.13335136129934103,0.0
1198,1198,-0.08764882689274134,-0.1,1,277.0,603.0,0.0,230.0,0,0.7951158471593731,0.0
1199,1199,0.8912694446016856,0.9,0,279.0,812.0,0.0,119.0,1,0.16851519532415027,0.0
1200,1200,-0.9690882936142435,-1.0,1,278.0,947.0,1.0,75.0,1,0.4897415239787738,0.0
1201,1201,-0.11960434988385127,-0.1,1,337.0,631.0,1.0,352.0,1,0.8853187914067264,0.0
1202,1202,0.807266184910514,0.8,0,289.0,613.0,0.0,78.0,1,0.192665058691667,0.0
1203,1203,0.9546487253769536,1.0,0,413.0,676.0,0.0,101.0,1,0.4964360016424302,0.0
1204,1204,-0.39484431294324907,-0.4,1,463.0,914.0,1.0,553.0,1,0.9992784860821288,0.0
1205,1205,0.9508632407710527,1.0,0,333.0,703.0,0.0,84.0,1,0.28976057675296235,0.0
1206,1206,-0.9766763340685487,-1.0,1,447.0,947.0,1.0,156.0,1,0.8102761686185012,0.0
1207,1207,0.13912897388502743,0.1,0,260.0,778.0,0.0,242.0,1,0.8210364268873535,0.0
1208,1208,0.997796723142164,1.0,0,300.0,709.0,0.0,61.0,1,0.31735757123303576,0.0
1209,1209,-0.6292008759423648,-0.6,1,293.0,775.0,1.0,92.0,1,0.4159804499470302,0.0
1210,1210,0.7831835158257627,0.8,0,300.0,639.0,0.0,91.0,1,0.4175646431176633,0.0
1211,1211,0.5180557630482869,0.5,0,419.0,599.0,0.0,162.0,1,0.705013061299733,0.0
1212,1212,-0.5934862686852533,-0.6,1,453.0,973.0,1.0,94.0,1,0.6913403048516694,0.0
1213,1213,0.9991466924988341,1.0,0,282.0,880.0,0.0,218.0,1,0.9311993392829198,0.0
1214,1214,-0.42201100880369946,-0.4,1,336.0,837.0,1.0,147.0,1,0.5098534746386864,0.0
1215,1215,0.633952678337746,0.6,0,298.0,592.0,0.0,810.0,1,0.13908069714837176,0.0
1216,1216,-0.3020955993146106,-0.3,1,408.0,767.0,1.0,115.0,1,0.5827009290355986,0.0
1217,1217,0.7862812920804882,0.8,0,435.0,740.0,0.0,115.0,1,0.2217135862190645,0.0
1218,1218,-0.20725861998403827,-0.2,1,298.0,523.0,1.0,139.0,1,0.3522249907263878,0.0
1219,1219,-0.7695236059624966,-0.8,1,289.0,732.0,1.0,119.0,1,0.6069191530734589,0.0
1220,1220,0.15555653787861545,0.2,0,372.0,582.0,0.0,276.0,1,0.4666353186497847,0.0
1221,1221,-0.5192091226299136,-0.5,1,324.0,807.0,1.0,209.0,1,0.19221857964216948,0.0
1222,1222,-0.15141804608162368,-0.2,1,417.0,570.0,1.0,83.0,1,0.29478671687860936,0.0
1223,1223,-0.24950753677961712,-0.2,1,343.0,843.0,0.0,534.0,0,0.935078199772224,0.0
1224,1224,0.95871502953831,1.0,0,448.0,734.0,0.0,78.0,1,0.4790252620273806,0.0
