,trial,coherence,coherence_bin,correct_side,target_onset,checker_onset,decision,decision_time,correct_decision,init_y_left,init_y_right
0,0,0.24926909276221987,0.2,0,261.0,807.0,0.0,412.0,1,0.0,0.0
1,1,-0.07433655064489786,-0.1,1,351.0,522.0,1.0,297.0,1,0.0,0.0
2,2,-0.207366518353568,-0.2,1,459.0,535.0,1.0,306.0,1,0.0,0.0
3,3,0.05092479482940804,0.1,0,423.0,916.0,1.0,741.0,0,0.0,0.0
4,4,0.6483394520087495,0.6,0,434.0,724.0,0.0,502.0,1,0.0,0.0
5,5,0.07589120247447334,0.1,0,373.0,543.0,1.0,1844.0,0,0.0,0.0
6,6,0.7313161717416408,0.7,0,485.0,968.0,0.0,457.0,1,0.0,0.0
7,7,-0.16625123620755344,-0.2,1,319.0,806.0,1.0,545.0,1,0.0,0.0
8,8,-0.8556393457116522,-0.9,1,397.0,937.0,1.0,486.0,1,0.0,0.0
9,9,0.10557041482973384,0.1,0,268.0,820.0,1.0,1052.0,0,0.0,0.0
10,10,-0.8085908935271313,-0.8,1,340.0,726.0,1.0,264.0,1,0.0,0.0
11,11,0.6487082023699284,0.6,0,469.0,704.0,0.0,187.0,1,0.0,0.0
12,12,0.6905924895741196,0.7,0,447.0,580.0,0.0,693.0,1,0.0,0.0
13,13,-0.009303391480392165,-0.0,1,415.0,789.0,1.0,1806.0,1,0.0,0.0
14,14,-0.7934098273644494,-0.8,1,295.0,507.0,1.0,318.0,1,0.0,0.0
15,15,-0.7498609529478926,-0.7,1,311.0,635.0,1.0,394.0,1,0.0,0.0
16,16,0.023044316349731364,0.0,0,379.0,821.0,0.0,870.0,1,0.0,0.0
17,17,0.655690901373434,0.7,0,454.0,995.0,0.0,351.0,1,0.0,0.0
18,18,-0.9898899689796963,-1.0,1,373.0,921.0,1.0,316.0,1,0.0,0.0
19,19,0.9593968545386193,1.0,0,334.0,610.0,0.0,376.0,1,0.0,0.0
20,20,0.057861023140507006,0.1,0,417.0,957.0,0.0,696.0,1,0.0,0.0
21,21,-0.7581379469249687,-0.8,1,445.0,957.0,1.0,268.0,1,0.0,0.0
22,22,-0.24124106514193389,-0.2,1,302.0,848.0,1.0,590.0,1,0.0,0.0
23,23,0.15549967475083748,0.2,0,498.0,897.0,0.0,415.0,1,0.0,0.0
24,24,0.8138340734189211,0.8,0,403.0,977.0,0.0,390.0,1,0.0,0.0
25,25,-0.3946011640236229,-0.4,1,402.0,578.0,1.0,520.0,1,0.0,0.0
26,26,0.3473018866419262,0.3,0,459.0,774.0,0.0,817.0,1,0.0,0.0
27,27,-0.7464331967738389,-0.7,1,465.0,845.0,1.0,620.0,1,0.0,0.0
28,28,-0.7916286797231373,-0.8,1,358.0,938.0,1.0,544.0,1,0.0,0.0
29,29,0.4149000002898491,0.4,0,294.0,606.0,0.0,250.0,1,0.0,0.0
30,30,-0.6840249491033383,-0.7,1,453.0,513.0,1.0,214.0,1,0.0,0.0
31,31,0.3431857567189305,0.3,0,317.0,730.0,0.0,693.0,1,0.0,0.0
32,32,0.4344415373290018,0.4,0,293.0,656.0,0.0,1061.0,1,0.0,0.0
33,33,-0.9922668051875918,-1.0,1,457.0,529.0,1.0,194.0,1,0.0,0.0
34,34,-0.797229945066458,-0.8,1,304.0,820.0,1.0,366.0,1,0.0,0.0
35,35,-0.7667477833716014,-0.8,1,444.0,597.0,1.0,459.0,1,0.0,0.0
36,36,0.805045146416902,0.8,0,462.0,747.0,0.0,291.0,1,0.0,0.0
37,37,0.38249313732404877,0.4,0,399.0,558.0,0.0,343.0,1,0.0,0.0
38,38,-0.25334282491320526,-0.3,1,378.0,722.0,1.0,930.0,1,0.0,0.0
39,39,-0.27852593338331855,-0.3,1,262.0,665.0,1.0,1013.0,1,0.0,0.0
40,40,-0.3777771672239387,-0.4,1,260.0,559.0,1.0,351.0,1,0.0,0.0
41,41,0.47918463865866734,0.5,0,429.0,636.0,0.0,295.0,1,0.0,0.0
42,42,-0.5039903925909315,-0.5,1,385.0,785.0,1.0,630.0,1,0.0,0.0
43,43,0.6006265370813686,0.6,0,358.0,597.0,0.0,285.0,1,0.0,0.0
44,44,0.2335131925469851,0.2,0,384.0,553.0,0.0,623.0,1,0.0,0.0
45,45,0.18169977291395556,0.2,0,471.0,867.0,0.0,2822.0,1,0.0,0.0
46,46,0.9768565087475063,1.0,0,285.0,614.0,0.0,661.0,1,0.0,0.0
47,47,-0.022740158580407455,-0.0,1,330.0,500.0,1.0,790.0,1,0.0,0.0
48,48,-0.27453432113660603,-0.3,1,397.0,625.0,1.0,368.0,1,0.0,0.0
49,49,0.7210960140952278,0.7,0,477.0,601.0,0.0,402.0,1,0.0,0.0
50,50,-0.24358461932884445,-0.2,1,479.0,923.0,1.0,498.0,1,0.0,0.0
51,51,-0.8054070686709027,-0.8,1,307.0,819.0,1.0,324.0,1,0.0,0.0
52,52,-0.11616010956230305,-0.1,1,349.0,622.0,1.0,459.0,1,0.0,0.0
53,53,-0.6386457348832424,-0.6,1,399.0,538.0,1.0,413.0,1,0.0,0.0
54,54,0.037783803371335134,0.0,0,469.0,654.0,1.0,1687.0,0,0.0,0.0
55,55,0.7887649952840319,0.8,0,321.0,695.0,0.0,174.0,1,0.0,0.0
56,56,-0.08475614870498305,-0.1,1,257.0,588.0,1.0,395.0,1,0.0,0.0
57,57,-0.45286788162827785,-0.5,1,326.0,604.0,1.0,430.0,1,0.0,0.0
58,58,0.8583717889247238,0.9,0,417.0,843.0,0.0,200.0,1,0.0,0.0
59,59,0.35479231021530033,0.4,0,426.0,761.0,0.0,733.0,1,0.0,0.0
60,60,0.7286780383627423,0.7,0,483.0,784.0,0.0,203.0,1,0.0,0.0
61,61,-0.12688805578110318,-0.1,1,317.0,676.0,1.0,817.0,1,0.0,0.0
62,62,-0.23747683012491194,-0.2,1,256.0,953.0,1.0,2501.0,1,0.0,0.0
63,63,-0.3482638945053216,-0.3,1,365.0,505.0,1.0,430.0,1,0.0,0.0
64,64,0.8310517214875528,0.8,0,256.0,683.0,0.0,361.0,1,0.0,0.0
65,65,0.3342657738503041,0.3,0,267.0,746.0,0.0,1417.0,1,0.0,0.0
66,66,-0.4178407324055109,-0.4,1,292.0,547.0,1.0,491.0,1,0.0,0.0
67,67,-0.6866922600367213,-0.7,1,449.0,687.0,1.0,534.0,1,0.0,0.0
68,68,-0.38218664258712276,-0.4,1,405.0,937.0,1.0,248.0,1,0.0,0.0
69,69,0.1556681174887573,0.2,0,449.0,868.0,0.0,1443.0,1,0.0,0.0
70,70,-0.1580484162135547,-0.2,1,317.0,970.0,1.0,703.0,1,0.0,0.0
71,71,0.05534731729290976,0.1,0,391.0,687.0,0.0,642.0,1,0.0,0.0
72,72,0.5328647861045055,0.5,0,489.0,740.0,0.0,1191.0,1,0.0,0.0
73,73,0.6984870481051597,0.7,0,285.0,571.0,0.0,244.0,1,0.0,0.0
74,74,0.25676107588350305,0.3,0,407.0,705.0,0.0,908.0,1,0.0,0.0
75,75,-0.17945298497578954,-0.2,1,484.0,720.0,1.0,466.0,1,0.0,0.0
76,76,-0.3258700493734974,-0.3,1,378.0,828.0,1.0,654.0,1,0.0,0.0
77,77,-0.6432717687847673,-0.6,1,382.0,851.0,1.0,737.0,1,0.0,0.0
78,78,0.9171913197658417,0.9,0,254.0,724.0,0.0,152.0,1,0.0,0.0
79,79,0.24191945873578202,0.2,0,343.0,725.0,1.0,672.0,0,0.0,0.0
80,80,-0.26417813245789423,-0.3,1,321.0,970.0,1.0,899.0,1,0.0,0.0
81,81,0.23957945088705257,0.2,0,424.0,769.0,0.0,507.0,1,0.0,0.0
82,82,-0.7684940252690351,-0.8,1,256.0,983.0,1.0,431.0,1,0.0,0.0
83,83,0.27988259766709356,0.3,0,494.0,677.0,0.0,699.0,1,0.0,0.0
84,84,0.49073964946851256,0.5,0,481.0,786.0,0.0,563.0,1,0.0,0.0
85,85,-0.6769587547834226,-0.7,1,487.0,886.0,1.0,627.0,1,0.0,0.0
86,86,0.7120194428801754,0.7,0,287.0,802.0,0.0,241.0,1,0.0,0.0
87,87,0.4318880437890589,0.4,0,333.0,624.0,0.0,603.0,1,0.0,0.0
88,88,-0.2903693124132465,-0.3,1,274.0,708.0,1.0,878.0,1,0.0,0.0
89,89,-0.6344268915022022,-0.6,1,496.0,526.0,1.0,428.0,1,0.0,0.0
90,90,-0.6894412685021576,-0.7,1,282.0,653.0,1.0,315.0,1,0.0,0.0
91,91,-0.34076591118631905,-0.3,1,455.0,536.0,1.0,619.0,1,0.0,0.0
92,92,-0.5774934030692189,-0.6,1,496.0,666.0,1.0,238.0,1,0.0,0.0
93,93,-0.8033845267155153,-0.8,1,451.0,901.0,1.0,628.0,1,0.0,0.0
94,94,-0.09327813690361131,-0.1,1,292.0,915.0,1.0,3593.0,1,0.0,0.0
95,95,-0.5824913030000485,-0.6,1,348.0,547.0,1.0,285.0,1,0.0,0.0
96,96,0.8351643119977732,0.8,0,418.0,755.0,0.0,287.0,1,0.0,0.0
97,97,0.8872026985083978,0.9,0,383.0,761.0,0.0,386.0,1,0.0,0.0
98,98,0.6227729749481783,0.6,0,285.0,833.0,0.0,562.0,1,0.0,0.0
99,99,0.42269729100379183,0.4,0,409.0,907.0,0.0,304.0,1,0.0,0.0
100,100,-0.18545084174791526,-0.2,1,285.0,993.0,1.0,1242.0,1,0.0,0.0
101,101,-0.9052356507361876,-0.9,1,317.0,871.0,1.0,312.0,1,0.0,0.0
102,102,0.6964595195742915,0.7,0,362.0,942.0,0.0,486.0,1,0.0,0.0
103,103,-0.0031296544589636266,-0.0,1,426.0,934.0,1.0,810.0,1,0.0,0.0
104,104,-0.5453010344074558,-0.5,1,269.0,594.0,1.0,347.0,1,0.0,0.0
105,105,-0.845123677833838,-0.8,1,425.0,876.0,1.0,409.0,1,0.0,0.0
106,106,-0.2240469264419085,-0.2,1,422.0,865.0,1.0,403.0,1,0.0,0.0
107,107,-0.29210341988528143,-0.3,1,286.0,968.0,1.0,246.0,1,0.0,0.0
108,108,-0.13280347624413746,-0.1,1,405.0,660.0,1.0,2135.0,1,0.0,0.0
109,109,0.2833593633543845,0.3,0,346.0,654.0,0.0,490.0,1,0.0,0.0
110,110,-0.5616030013108013,-0.6,1,356.0,676.0,1.0,508.0,1,0.0,0.0
111,111,0.11243830954051481,0.1,0,251.0,664.0,1.0,1155.0,0,0.0,0.0
112,112,-0.3875037007662079,-0.4,1,476.0,980.0,1.0,504.0,1,0.0,0.0
113,113,0.6923815716844701,0.7,0,425.0,952.0,0.0,293.0,1,0.0,0.0
114,114,-0.4835019875432376,-0.5,1,423.0,940.0,1.0,257.0,1,0.0,0.0
115,115,-0.43891536562157296,-0.4,1,379.0,939.0,1.0,352.0,1,0.0,0.0
116,116,-0.34251738038479274,-0.3,1,405.0,676.0,1.0,479.0,1,0.0,0.0
117,117,-0.23158424006123313,-0.2,1,349.0,857.0,1.0,654.0,1,0.0,0.0
118,118,0.6964248893697818,0.7,0,477.0,631.0,0.0,282.0,1,0.0,0.0
119,119,-0.35900234335557935,-0.4,1,321.0,731.0,1.0,578.0,1,0.0,0.0
120,120,0.9532583619720001,1.0,0,277.0,757.0,0.0,186.0,1,0.0,0.0
121,121,0.205147335698876,0.2,0,349.0,530.0,0.0,761.0,1,0.0,0.0
122,122,-0.7015776414729036,-0.7,1,381.0,582.0,1.0,177.0,1,0.0,0.0
123,123,0.16942208476665477,0.2,0,360.0,660.0,0.0,1710.0,1,0.0,0.0
124,124,-0.108568627561902,-0.1,1,390.0,887.0,1.0,303.0,1,0.0,0.0
125,125,-0.9973463812594181,-1.0,1,275.0,992.0,1.0,273.0,1,0.0,0.0
126,126,-0.7843448002868771,-0.8,1,404.0,836.0,1.0,620.0,1,0.0,0.0
127,127,0.9945485537105376,1.0,0,259.0,837.0,0.0,244.0,1,0.0,0.0
128,128,0.534575972612237,0.5,0,325.0,615.0,0.0,410.0,1,0.0,0.0
129,129,0.06539435077522326,0.1,0,310.0,673.0,1.0,987.0,0,0.0,0.0
130,130,0.7787265189926367,0.8,0,457.0,585.0,0.0,358.0,1,0.0,0.0
131,131,-0.5009645184887899,-0.5,1,456.0,646.0,1.0,398.0,1,0.0,0.0
132,132,0.22704600053326307,0.2,0,471.0,960.0,0.0,1299.0,1,0.0,0.0
133,133,-0.34066332024601653,-0.3,1,322.0,690.0,1.0,858.0,1,0.0,0.0
134,134,0.9919215449096763,1.0,0,383.0,504.0,0.0,373.0,1,0.0,0.0
135,135,0.7708685759111022,0.8,0,347.0,779.0,0.0,294.0,1,0.0,0.0
136,136,-0.48030803502091857,-0.5,1,331.0,774.0,1.0,485.0,1,0.0,0.0
137,137,0.6667076320451613,0.7,0,402.0,516.0,0.0,202.0,1,0.0,0.0
138,138,-0.31504569495504,-0.3,1,306.0,608.0,1.0,496.0,1,0.0,0.0
139,139,-0.13042818520877608,-0.1,1,486.0,555.0,1.0,1149.0,1,0.0,0.0
140,140,0.7167634923782211,0.7,0,277.0,774.0,0.0,349.0,1,0.0,0.0
141,141,-0.052631143795651036,-0.1,1,406.0,542.0,1.0,2162.0,1,0.0,0.0
142,142,0.5058219990903945,0.5,0,431.0,670.0,0.0,359.0,1,0.0,0.0
143,143,0.19544048459519292,0.2,0,490.0,920.0,0.0,460.0,1,0.0,0.0
144,144,0.12643113014753493,0.1,0,449.0,969.0,1.0,1212.0,0,0.0,0.0
145,145,-0.03608715669753004,-0.0,1,315.0,768.0,1.0,477.0,1,0.0,0.0
146,146,0.6886977205867155,0.7,0,335.0,862.0,0.0,653.0,1,0.0,0.0
147,147,-0.47226180052806677,-0.5,1,318.0,888.0,1.0,764.0,1,0.0,0.0
148,148,0.6430107074221507,0.6,0,339.0,615.0,0.0,206.0,1,0.0,0.0
149,149,0.3034546794103845,0.3,0,467.0,676.0,0.0,377.0,1,0.0,0.0
150,150,-0.43462139439094916,-0.4,1,416.0,812.0,1.0,552.0,1,0.0,0.0
151,151,0.5708733567093967,0.6,0,449.0,572.0,0.0,399.0,1,0.0,0.0
152,152,-0.21764709937539317,-0.2,1,397.0,983.0,1.0,530.0,1,0.0,0.0
153,153,0.6093851927761642,0.6,0,497.0,667.0,0.0,416.0,1,0.0,0.0
154,154,-0.24846956361258132,-0.2,1,460.0,753.0,1.0,477.0,1,0.0,0.0
155,155,-0.6303767253530017,-0.6,1,411.0,804.0,1.0,365.0,1,0.0,0.0
156,156,0.721121653696996,0.7,0,339.0,895.0,0.0,426.0,1,0.0,0.0
157,157,-0.023663074026068598,-0.0,1,315.0,780.0,0.0,3905.0,0,0.0,0.0
158,158,-0.6289388675745524,-0.6,1,409.0,771.0,1.0,320.0,1,0.0,0.0
159,159,0.8091629988133271,0.8,0,284.0,924.0,0.0,372.0,1,0.0,0.0
160,160,0.03752633906994207,0.0,0,446.0,584.0,1.0,2720.0,0,0.0,0.0
161,161,-0.0025708552761687375,-0.0,1,489.0,877.0,1.0,2874.0,1,0.0,0.0
162,162,0.24095131752572896,0.2,0,381.0,907.0,0.0,412.0,1,0.0,0.0
163,163,-0.9241063129747402,-0.9,1,301.0,687.0,1.0,502.0,1,0.0,0.0
164,164,-0.15550177803149356,-0.2,1,406.0,802.0,1.0,912.0,1,0.0,0.0
165,165,-0.4775846849871841,-0.5,1,486.0,938.0,1.0,416.0,1,0.0,0.0
166,166,-0.6162816000739846,-0.6,1,348.0,712.0,1.0,280.0,1,0.0,0.0
167,167,-0.06061464842410058,-0.1,1,446.0,543.0,1.0,1261.0,1,0.0,0.0
168,168,0.09442631576306848,0.1,0,380.0,643.0,1.0,957.0,0,0.0,0.0
169,169,-0.3198345495020274,-0.3,1,485.0,639.0,1.0,696.0,1,0.0,0.0
170,170,0.32571086241077984,0.3,0,421.0,759.0,0.0,1340.0,1,0.0,0.0
171,171,-0.32482227620668525,-0.3,1,415.0,957.0,1.0,958.0,1,0.0,0.0
172,172,-0.9919662235967672,-1.0,1,264.0,740.0,1.0,186.0,1,0.0,0.0
173,173,0.9595484424651028,1.0,0,390.0,518.0,0.0,502.0,1,0.0,0.0
174,174,-0.8313464001558697,-0.8,1,351.0,640.0,1.0,209.0,1,0.0,0.0
175,175,0.11944046046998702,0.1,0,250.0,510.0,1.0,2880.0,0,0.0,0.0
176,176,0.9563486372482621,1.0,0,264.0,868.0,0.0,368.0,1,0.0,0.0
177,177,-0.417178756529738,-0.4,1,458.0,716.0,1.0,1026.0,1,0.0,0.0
178,178,0.5012028157301149,0.5,0,455.0,899.0,0.0,316.0,1,0.0,0.0
179,179,0.9716835776263211,1.0,0,279.0,727.0,0.0,254.0,1,0.0,0.0
180,180,0.30706632498934683,0.3,0,376.0,989.0,0.0,565.0,1,0.0,0.0
181,181,0.11484589503304732,0.1,0,462.0,667.0,1.0,931.0,0,0.0,0.0
182,182,0.7639021735668372,0.8,0,290.0,840.0,0.0,220.0,1,0.0,0.0
183,183,-0.4875653119337433,-0.5,1,470.0,733.0,1.0,207.0,1,0.0,0.0
184,184,0.009955631994084557,0.0,0,401.0,934.0,1.0,955.0,0,0.0,0.0
185,185,0.5381861650080622,0.5,0,299.0,850.0,0.0,581.0,1,0.0,0.0
186,186,0.25418081203515497,0.3,0,284.0,546.0,0.0,180.0,1,0.0,0.0
187,187,-0.7307888742127746,-0.7,1,472.0,665.0,1.0,203.0,1,0.0,0.0
188,188,0.12785484629727795,0.1,0,338.0,653.0,0.0,2979.0,1,0.0,0.0
189,189,0.8174447626152028,0.8,0,435.0,672.0,0.0,223.0,1,0.0,0.0
190,190,0.08143836458016396,0.1,0,403.0,740.0,0.0,487.0,1,0.0,0.0
191,191,0.24057281218760496,0.2,0,363.0,609.0,0.0,688.0,1,0.0,0.0
192,192,0.6931873674467193,0.7,0,477.0,992.0,0.0,511.0,1,0.0,0.0
193,193,0.9054335107265372,0.9,0,258.0,790.0,0.0,392.0,1,0.0,0.0
194,194,0.6267433496700534,0.6,0,294.0,526.0,0.0,380.0,1,0.0,0.0
195,195,-0.6437177931655775,-0.6,1,333.0,854.0,1.0,2543.0,1,0.0,0.0
196,196,-0.6880418378490256,-0.7,1,362.0,592.0,1.0,516.0,1,0.0,0.0
197,197,-0.6267911711881562,-0.6,1,422.0,756.0,1.0,332.0,1,0.0,0.0
198,198,0.9446770932595367,0.9,0,438.0,712.0,0.0,370.0,1,0.0,0.0
199,199,0.13491379283026683,0.1,0,396.0,686.0,0.0,1068.0,1,0.0,0.0
200,200,-0.7810399842122391,-0.8,1,312.0,924.0,1.0,454.0,1,0.0,0.0
201,201,-0.7740454890145394,-0.8,1,361.0,769.0,1.0,380.0,1,0.0,0.0
202,202,0.34658729571401636,0.3,0,434.0,832.0,0.0,634.0,1,0.0,0.0
203,203,0.13459088421955046,0.1,0,475.0,835.0,0.0,890.0,1,0.0,0.0
204,204,-0.9737223823272347,-1.0,1,265.0,937.0,1.0,458.0,1,0.0,0.0
205,205,0.9510980935585431,1.0,0,272.0,719.0,0.0,369.0,1,0.0,0.0
206,206,0.8743525114886737,0.9,0,432.0,655.0,0.0,343.0,1,0.0,0.0
207,207,0.8095411349881254,0.8,0,462.0,908.0,0.0,370.0,1,0.0,0.0
208,208,-0.8955843471661402,-0.9,1,340.0,847.0,1.0,283.0,1,0.0,0.0
209,209,0.16026157156733079,0.2,0,261.0,789.0,1.0,1760.0,0,0.0,0.0
210,210,0.056964022791460955,0.1,0,417.0,514.0,1.0,959.0,0,0.0,0.0
211,211,-0.18273866133211092,-0.2,1,340.0,604.0,1.0,326.0,1,0.0,0.0
212,212,-0.3487442922867061,-0.3,1,326.0,786.0,1.0,588.0,1,0.0,0.0
213,213,-0.9861569324213288,-1.0,1,371.0,782.0,1.0,327.0,1,0.0,0.0
214,214,0.13841463747203564,0.1,0,305.0,864.0,0.0,811.0,1,0.0,0.0
215,215,-0.7207711608754057,-0.7,1,348.0,818.0,1.0,304.0,1,0.0,0.0
216,216,-0.19584311940039112,-0.2,1,330.0,643.0,1.0,667.0,1,0.0,0.0
217,217,-0.32117490420273986,-0.3,1,420.0,975.0,1.0,625.0,1,0.0,0.0
218,218,-0.7305744240672971,-0.7,1,419.0,976.0,1.0,415.0,1,0.0,0.0
219,219,-0.5024356122529516,-0.5,1,346.0,948.0,1.0,216.0,1,0.0,0.0
220,220,0.9048127724624413,0.9,0,321.0,648.0,0.0,241.0,1,0.0,0.0
221,221,0.43632725403464256,0.4,0,490.0,983.0,0.0,1007.0,1,0.0,0.0
222,222,-0.7097661588906561,-0.7,1,408.0,945.0,1.0,367.0,1,0.0,0.0
223,223,-0.2568515813180823,-0.3,1,388.0,678.0,1.0,1054.0,1,0.0,0.0
224,224,0.6873950896698111,0.7,0,402.0,815.0,0.0,313.0,1,0.0,0.0
225,225,-0.8990453723788341,-0.9,1,378.0,884.0,1.0,288.0,1,0.0,0.0
226,226,0.06669270567061769,0.1,0,426.0,536.0,1.0,2708.0,0,0.0,0.0
227,227,0.3014709361124839,0.3,0,390.0,560.0,0.0,540.0,1,0.0,0.0
228,228,0.5809184134498435,0.6,0,361.0,606.0,0.0,553.0,1,0.0,0.0
229,229,0.11617798397900314,0.1,0,433.0,888.0,1.0,879.0,0,0.0,0.0
230,230,0.3711099493535437,0.4,0,310.0,531.0,0.0,299.0,1,0.0,0.0
231,231,-0.6743909356731534,-0.7,1,438.0,764.0,1.0,378.0,1,0.0,0.0
232,232,-0.07740033690370107,-0.1,1,283.0,989.0,1.0,1678.0,1,0.0,0.0
233,233,0.5762499208264751,0.6,0,385.0,525.0,0.0,670.0,1,0.0,0.0
234,234,-0.36142446561576747,-0.4,1,295.0,811.0,1.0,274.0,1,0.0,0.0
235,235,0.5201965404094171,0.5,0,400.0,959.0,0.0,571.0,1,0.0,0.0
236,236,-0.043745762505331465,-0.0,1,280.0,814.0,1.0,1936.0,1,0.0,0.0
237,237,-0.6063670893892803,-0.6,1,290.0,508.0,1.0,182.0,1,0.0,0.0
238,238,0.8551823271614079,0.9,0,331.0,715.0,0.0,474.0,1,0.0,0.0
239,239,0.6951156329350876,0.7,0,333.0,847.0,0.0,330.0,1,0.0,0.0
240,240,-0.09453423443865194,-0.1,1,416.0,771.0,1.0,733.0,1,0.0,0.0
241,241,-0.8714674529656317,-0.9,1,259.0,850.0,1.0,311.0,1,0.0,0.0
242,242,0.05000563436368499,0.1,0,262.0,957.0,1.0,771.0,0,0.0,0.0
243,243,0.6468356584630397,0.6,0,313.0,741.0,0.0,546.0,1,0.0,0.0
244,244,0.1910411352379504,0.2,0,482.0,852.0,0.0,546.0,1,0.0,0.0
245,245,0.364195671590678,0.4,0,347.0,713.0,0.0,570.0,1,0.0,0.0
246,246,0.982817179015532,1.0,0,401.0,803.0,0.0,266.0,1,0.0,0.0
247,247,-0.2311261745044917,-0.2,1,430.0,864.0,1.0,656.0,1,0.0,0.0
248,248,-0.2447429351620125,-0.2,1,412.0,588.0,1.0,390.0,1,0.0,0.0
249,249,-0.8631885216097097,-0.9,1,388.0,877.0,1.0,345.0,1,0.0,0.0
250,250,0.7947659723891063,0.8,0,359.0,778.0,0.0,303.0,1,0.0,0.0
251,251,0.24323066530023052,0.2,0,337.0,845.0,0.0,1338.0,1,0.0,0.0
252,252,-0.33057040753965605,-0.3,1,385.0,510.0,1.0,535.0,1,0.0,0.0
253,253,0.6182312279215869,0.6,0,457.0,670.0,0.0,743.0,1,0.0,0.0
254,254,0.38217522550759053,0.4,0,482.0,652.0,0.0,756.0,1,0.0,0.0
255,255,0.06517603166327857,0.1,0,405.0,665.0,1.0,970.0,0,0.0,0.0
256,256,0.2344772382753435,0.2,0,388.0,772.0,0.0,2420.0,1,0.0,0.0
257,257,0.27581649667579944,0.3,0,452.0,787.0,0.0,1041.0,1,0.0,0.0
258,258,-0.020640715738864612,-0.0,1,282.0,673.0,1.0,295.0,1,0.0,0.0
259,259,0.8531822110592349,0.9,0,405.0,512.0,0.0,463.0,1,0.0,0.0
260,260,0.8773329744266893,0.9,0,499.0,508.0,0.0,313.0,1,0.0,0.0
261,261,0.1236801679519468,0.1,0,496.0,947.0,0.0,677.0,1,0.0,0.0
262,262,0.17542341379670146,0.2,0,436.0,888.0,0.0,1386.0,1,0.0,0.0
263,263,0.4334611630825911,0.4,0,319.0,836.0,0.0,645.0,1,0.0,0.0
264,264,-0.7387403120223932,-0.7,1,313.0,844.0,1.0,413.0,1,0.0,0.0
265,265,0.17391352290717133,0.2,0,468.0,595.0,1.0,727.0,0,0.0,0.0
266,266,-0.13636947421541423,-0.1,1,450.0,678.0,1.0,622.0,1,0.0,0.0
267,267,-0.7588951081569704,-0.8,1,260.0,726.0,1.0,244.0,1,0.0,0.0
268,268,-0.8479778466105534,-0.8,1,299.0,693.0,1.0,308.0,1,0.0,0.0
269,269,0.22774520940741638,0.2,0,272.0,554.0,0.0,1284.0,1,0.0,0.0
270,270,0.3151734861462552,0.3,0,471.0,776.0,0.0,343.0,1,0.0,0.0
271,271,-0.9991551055580636,-1.0,1,411.0,886.0,1.0,163.0,1,0.0,0.0
272,272,0.9243892794932411,0.9,0,309.0,608.0,0.0,703.0,1,0.0,0.0
273,273,-0.37039478725553976,-0.4,1,317.0,899.0,1.0,424.0,1,0.0,0.0
274,274,-0.5856733681718298,-0.6,1,268.0,693.0,1.0,399.0,1,0.0,0.0
275,275,0.3293943710228582,0.3,0,439.0,926.0,0.0,835.0,1,0.0,0.0
276,276,0.7169433043016222,0.7,0,494.0,627.0,0.0,499.0,1,0.0,0.0
277,277,0.9180353737009868,0.9,0,427.0,531.0,0.0,192.0,1,0.0,0.0
278,278,-0.758833978892375,-0.8,1,314.0,787.0,1.0,499.0,1,0.0,0.0
279,279,-0.9103450233989412,-0.9,1,251.0,540.0,1.0,299.0,1,0.0,0.0
280,280,0.15249276829179248,0.2,0,437.0,875.0,0.0,1778.0,1,0.0,0.0
281,281,0.4906402923763795,0.5,0,339.0,928.0,0.0,1023.0,1,0.0,0.0
282,282,-0.8867298341004679,-0.9,1,313.0,677.0,1.0,350.0,1,0.0,0.0
283,283,0.044269341637918735,0.0,0,473.0,515.0,1.0,1492.0,0,0.0,0.0
284,284,0.8515695037022115,0.9,0,309.0,638.0,0.0,163.0,1,0.0,0.0
285,285,0.9725462903133051,1.0,0,389.0,664.0,0.0,377.0,1,0.0,0.0
286,286,0.8837700332980267,0.9,0,322.0,895.0,0.0,273.0,1,0.0,0.0
287,287,0.00733105140871837,0.0,0,283.0,779.0,1.0,1408.0,0,0.0,0.0
288,288,-0.5603237618385533,-0.6,1,318.0,875.0,1.0,337.0,1,0.0,0.0
289,289,0.36360691114789345,0.4,0,497.0,547.0,0.0,246.0,1,0.0,0.0
290,290,-0.3315601589933417,-0.3,1,409.0,781.0,1.0,350.0,1,0.0,0.0
291,291,-0.6742577519962638,-0.7,1,408.0,921.0,1.0,241.0,1,0.0,0.0
292,292,-0.0694022494574309,-0.1,1,251.0,980.0,1.0,1639.0,1,0.0,0.0
293,293,-0.7012383823282979,-0.7,1,253.0,722.0,1.0,465.0,1,0.0,0.0
294,294,-0.5300986049021164,-0.5,1,479.0,803.0,1.0,408.0,1,0.0,0.0
295,295,0.9875986666490271,1.0,0,428.0,743.0,0.0,299.0,1,0.0,0.0
296,296,0.18990785718577508,0.2,0,372.0,732.0,1.0,436.0,0,0.0,0.0
297,297,0.6606793702738487,0.7,0,438.0,503.0,0.0,379.0,1,0.0,0.0
298,298,-0.839398139391305,-0.8,1,372.0,690.0,1.0,238.0,1,0.0,0.0
299,299,-0.1785387542379635,-0.2,1,278.0,532.0,1.0,520.0,1,0.0,0.0
300,300,-0.30155177576503056,-0.3,1,455.0,985.0,1.0,1790.0,1,0.0,0.0
301,301,0.7744177676833917,0.8,0,413.0,564.0,0.0,313.0,1,0.0,0.0
302,302,-0.6013581562973078,-0.6,1,416.0,658.0,1.0,586.0,1,0.0,0.0
303,303,-0.5415824102383779,-0.5,1,294.0,620.0,1.0,356.0,1,0.0,0.0
304,304,-0.33887196597176117,-0.3,1,299.0,822.0,1.0,429.0,1,0.0,0.0
305,305,-0.5121589970939799,-0.5,1,349.0,887.0,1.0,354.0,1,0.0,0.0
306,306,0.7522553679120494,0.8,0,302.0,971.0,0.0,537.0,1,0.0,0.0
307,307,-0.8266479280378536,-0.8,1,252.0,813.0,1.0,315.0,1,0.0,0.0
308,308,0.25204948684433903,0.3,0,446.0,903.0,0.0,481.0,1,0.0,0.0
309,309,0.7469545924350094,0.7,0,304.0,775.0,0.0,561.0,1,0.0,0.0
310,310,-0.05411999696640568,-0.1,1,295.0,735.0,1.0,970.0,1,0.0,0.0
311,311,0.013492484234405744,0.0,0,275.0,965.0,1.0,420.0,0,0.0,0.0
312,312,-0.26132669733161684,-0.3,1,405.0,791.0,1.0,324.0,1,0.0,0.0
313,313,-0.47174044170617835,-0.5,1,280.0,854.0,1.0,296.0,1,0.0,0.0
314,314,0.8620429167542152,0.9,0,283.0,531.0,0.0,316.0,1,0.0,0.0
315,315,0.7972002100180751,0.8,0,327.0,631.0,0.0,532.0,1,0.0,0.0
316,316,-0.9195371976140061,-0.9,1,268.0,841.0,1.0,351.0,1,0.0,0.0
317,317,-0.15164437779106654,-0.2,1,293.0,631.0,1.0,1116.0,1,0.0,0.0
318,318,0.7061162761668207,0.7,0,342.0,901.0,0.0,397.0,1,0.0,0.0
319,319,-0.20706079790536314,-0.2,1,419.0,526.0,1.0,575.0,1,0.0,0.0
320,320,0.536848757018564,0.5,0,255.0,920.0,0.0,255.0,1,0.0,0.0
321,321,0.8286268340565286,0.8,0,336.0,646.0,0.0,188.0,1,0.0,0.0
322,322,-0.46500550136232466,-0.5,1,415.0,575.0,1.0,1070.0,1,0.0,0.0
323,323,0.45388773386058046,0.5,0,456.0,544.0,0.0,970.0,1,0.0,0.0
324,324,0.5180369017176487,0.5,0,425.0,663.0,0.0,432.0,1,0.0,0.0
325,325,0.11605697461020537,0.1,0,301.0,621.0,0.0,4078.0,1,0.0,0.0
326,326,0.9280747564956904,0.9,0,253.0,619.0,0.0,288.0,1,0.0,0.0
327,327,-0.05086084472245744,-0.1,1,288.0,777.0,1.0,805.0,1,0.0,0.0
328,328,0.4517733985130006,0.5,0,482.0,927.0,0.0,591.0,1,0.0,0.0
329,329,0.8722974353330339,0.9,0,411.0,648.0,0.0,191.0,1,0.0,0.0
330,330,-0.62501206617869,-0.6,1,357.0,601.0,1.0,512.0,1,0.0,0.0
331,331,-0.9995042811095576,-1.0,1,306.0,933.0,1.0,251.0,1,0.0,0.0
332,332,-0.3652358098306032,-0.4,1,367.0,762.0,1.0,851.0,1,0.0,0.0
333,333,-0.05430853823837656,-0.1,1,274.0,954.0,1.0,542.0,1,0.0,0.0
334,334,0.17269628215309707,0.2,0,280.0,725.0,1.0,625.0,0,0.0,0.0
335,335,0.0849427645996863,0.1,0,366.0,796.0,1.0,1208.0,0,0.0,0.0
336,336,-0.24055627690569326,-0.2,1,490.0,839.0,1.0,261.0,1,0.0,0.0
337,337,-0.09892388413767006,-0.1,1,408.0,750.0,1.0,1572.0,1,0.0,0.0
338,338,-0.19518508125889156,-0.2,1,424.0,822.0,1.0,704.0,1,0.0,0.0
339,339,0.1021574206771032,0.1,0,333.0,587.0,0.0,540.0,1,0.0,0.0
340,340,0.5118132836287783,0.5,0,497.0,681.0,0.0,302.0,1,0.0,0.0
341,341,0.11737963933591433,0.1,0,283.0,913.0,0.0,3804.0,1,0.0,0.0
342,342,-0.38412656026945213,-0.4,1,322.0,688.0,1.0,320.0,1,0.0,0.0
343,343,-0.5063185249680304,-0.5,1,407.0,928.0,1.0,375.0,1,0.0,0.0
344,344,0.3555969533199741,0.4,0,267.0,799.0,0.0,404.0,1,0.0,0.0
345,345,0.9321782751539704,0.9,0,255.0,576.0,0.0,429.0,1,0.0,0.0
346,346,0.9614224377811771,1.0,0,420.0,616.0,0.0,184.0,1,0.0,0.0
347,347,0.7782252123524331,0.8,0,299.0,608.0,0.0,353.0,1,0.0,0.0
348,348,0.1924194218136841,0.2,0,307.0,566.0,0.0,2057.0,1,0.0,0.0
349,349,-0.269243490953452,-0.3,1,446.0,795.0,1.0,789.0,1,0.0,0.0
350,350,-0.23636293770251937,-0.2,1,342.0,840.0,1.0,1848.0,1,0.0,0.0
351,351,0.1307701335050111,0.1,0,373.0,519.0,1.0,448.0,0,0.0,0.0
352,352,-0.6868786990147899,-0.7,1,434.0,758.0,1.0,248.0,1,0.0,0.0
353,353,-0.5537266798288032,-0.6,1,472.0,999.0,1.0,309.0,1,0.0,0.0
354,354,-0.28709140100267216,-0.3,1,293.0,611.0,1.0,426.0,1,0.0,0.0
355,355,0.2760147928583436,0.3,0,456.0,836.0,0.0,438.0,1,0.0,0.0
356,356,0.26464177275931533,0.3,0,392.0,917.0,0.0,311.0,1,0.0,0.0
357,357,-0.5446678633974134,-0.5,1,467.0,807.0,1.0,456.0,1,0.0,0.0
358,358,-0.11000103289997987,-0.1,1,264.0,738.0,1.0,598.0,1,0.0,0.0
359,359,0.7979210033017674,0.8,0,418.0,982.0,0.0,260.0,1,0.0,0.0
360,360,-0.32517513718381696,-0.3,1,391.0,948.0,1.0,381.0,1,0.0,0.0
361,361,-0.623442192638026,-0.6,1,392.0,927.0,1.0,361.0,1,0.0,0.0
362,362,0.048721960198616854,0.0,0,415.0,569.0,0.0,746.0,1,0.0,0.0
363,363,0.6594959704384471,0.7,0,433.0,975.0,0.0,162.0,1,0.0,0.0
364,364,-0.09862561146140814,-0.1,1,259.0,671.0,1.0,1930.0,1,0.0,0.0
365,365,-0.7215173862445974,-0.7,1,481.0,843.0,1.0,406.0,1,0.0,0.0
366,366,0.10095054862222508,0.1,0,422.0,587.0,1.0,1911.0,0,0.0,0.0
367,367,0.8997118540889664,0.9,0,343.0,553.0,0.0,234.0,1,0.0,0.0
368,368,-0.5736479028394357,-0.6,1,371.0,999.0,1.0,700.0,1,0.0,0.0
369,369,0.2508899333592183,0.3,0,324.0,717.0,0.0,519.0,1,0.0,0.0
370,370,-0.8334133304148839,-0.8,1,301.0,902.0,1.0,277.0,1,0.0,0.0
371,371,0.6051040141823547,0.6,0,282.0,980.0,0.0,238.0,1,0.0,0.0
372,372,0.17575630520157803,0.2,0,459.0,894.0,0.0,1057.0,1,0.0,0.0
373,373,0.1885200910341387,0.2,0,455.0,842.0,1.0,1383.0,0,0.0,0.0
374,374,0.08055393436456804,0.1,0,442.0,879.0,0.0,2099.0,1,0.0,0.0
375,375,0.09862205959266301,0.1,0,382.0,711.0,0.0,527.0,1,0.0,0.0
376,376,0.5430773495614438,0.5,0,345.0,666.0,0.0,619.0,1,0.0,0.0
377,377,0.7475558974972003,0.7,0,350.0,564.0,0.0,346.0,1,0.0,0.0
378,378,-0.13388338142510214,-0.1,1,453.0,612.0,1.0,1005.0,1,0.0,0.0
379,379,0.31350600773169135,0.3,0,401.0,909.0,0.0,710.0,1,0.0,0.0
380,380,0.9615445816741359,1.0,0,265.0,617.0,0.0,148.0,1,0.0,0.0
381,381,-0.3923928563922794,-0.4,1,344.0,893.0,1.0,653.0,1,0.0,0.0
382,382,0.6612901764742865,0.7,0,294.0,649.0,0.0,387.0,1,0.0,0.0
383,383,-0.18357061687341125,-0.2,1,486.0,533.0,1.0,781.0,1,0.0,0.0
384,384,-0.8395798375179433,-0.8,1,329.0,545.0,1.0,206.0,1,0.0,0.0
385,385,0.02699781520812783,0.0,0,428.0,707.0,1.0,1515.0,0,0.0,0.0
386,386,0.12341424927341516,0.1,0,365.0,800.0,0.0,2345.0,1,0.0,0.0
387,387,-0.248450472950402,-0.2,1,451.0,796.0,1.0,353.0,1,0.0,0.0
388,388,0.13613634377628037,0.1,0,339.0,632.0,1.0,1069.0,0,0.0,0.0
389,389,-0.8736370941185676,-0.9,1,348.0,747.0,1.0,305.0,1,0.0,0.0
390,390,0.4968157397026767,0.5,0,362.0,585.0,0.0,1053.0,1,0.0,0.0
391,391,-0.20791427834476184,-0.2,1,313.0,839.0,1.0,328.0,1,0.0,0.0
392,392,-0.6215143831322714,-0.6,1,323.0,909.0,1.0,348.0,1,0.0,0.0
393,393,-0.2828436643310117,-0.3,1,337.0,888.0,1.0,645.0,1,0.0,0.0
394,394,0.7076324696913081,0.7,0,259.0,536.0,0.0,285.0,1,0.0,0.0
395,395,-0.6942638968474317,-0.7,1,393.0,741.0,1.0,246.0,1,0.0,0.0
396,396,-0.7557567173973552,-0.8,1,352.0,664.0,1.0,224.0,1,0.0,0.0
397,397,0.0954973571989064,0.1,0,493.0,630.0,1.0,1937.0,0,0.0,0.0
398,398,0.3651656216911261,0.4,0,308.0,782.0,0.0,660.0,1,0.0,0.0
399,399,-0.95691178109339,-1.0,1,323.0,726.0,1.0,591.0,1,0.0,0.0
400,400,-0.46402073640870767,-0.5,1,377.0,721.0,1.0,652.0,1,0.0,0.0
401,401,-0.0914577418868161,-0.1,1,379.0,876.0,1.0,915.0,1,0.0,0.0
402,402,0.1832022219383045,0.2,0,433.0,835.0,1.0,372.0,0,0.0,0.0
403,403,-0.3666982303157027,-0.4,1,313.0,565.0,1.0,292.0,1,0.0,0.0
404,404,0.013828260373963008,0.0,0,264.0,613.0,1.0,2703.0,0,0.0,0.0
405,405,-0.14085326800785336,-0.1,1,445.0,897.0,1.0,448.0,1,0.0,0.0
406,406,0.8856477231779742,0.9,0,340.0,751.0,0.0,339.0,1,0.0,0.0
407,407,-0.2522555062221561,-0.3,1,452.0,714.0,1.0,544.0,1,0.0,0.0
408,408,0.27798324455476986,0.3,0,354.0,912.0,0.0,754.0,1,0.0,0.0
409,409,-0.8627833283654598,-0.9,1,272.0,576.0,1.0,272.0,1,0.0,0.0
410,410,0.08534374870552286,0.1,0,326.0,970.0,1.0,964.0,0,0.0,0.0
411,411,-0.38570009214431655,-0.4,1,494.0,904.0,1.0,322.0,1,0.0,0.0
412,412,-0.8146847732874296,-0.8,1,360.0,625.0,1.0,285.0,1,0.0,0.0
413,413,-0.30237789774288437,-0.3,1,278.0,985.0,1.0,487.0,1,0.0,0.0
414,414,0.9333835412830209,0.9,0,345.0,748.0,0.0,247.0,1,0.0,0.0
415,415,-0.456164378861708,-0.5,1,339.0,753.0,1.0,318.0,1,0.0,0.0
416,416,0.09529433483842142,0.1,0,311.0,600.0,0.0,3079.0,1,0.0,0.0
417,417,0.6597521662065811,0.7,0,322.0,506.0,0.0,372.0,1,0.0,0.0
418,418,0.8942288499043041,0.9,0,285.0,568.0,0.0,247.0,1,0.0,0.0
419,419,0.5144102290464114,0.5,0,279.0,960.0,0.0,401.0,1,0.0,0.0
420,420,-0.3248998669345087,-0.3,1,297.0,933.0,1.0,420.0,1,0.0,0.0
421,421,-0.12880835284453673,-0.1,1,319.0,902.0,1.0,329.0,1,0.0,0.0
422,422,0.17772891507235178,0.2,0,263.0,854.0,0.0,1463.0,1,0.0,0.0
423,423,-0.0952466858765999,-0.1,1,399.0,727.0,1.0,924.0,1,0.0,0.0
424,424,-0.745973054283334,-0.7,1,306.0,502.0,1.0,412.0,1,0.0,0.0
425,425,-0.8329494343663977,-0.8,1,288.0,612.0,1.0,310.0,1,0.0,0.0
426,426,-0.9956076114017589,-1.0,1,330.0,566.0,1.0,654.0,1,0.0,0.0
427,427,0.4233666195795567,0.4,0,487.0,598.0,0.0,385.0,1,0.0,0.0
428,428,-0.7181486485855963,-0.7,1,342.0,741.0,1.0,727.0,1,0.0,0.0
429,429,-0.8385206023975844,-0.8,1,277.0,513.0,1.0,300.0,1,0.0,0.0
430,430,2.9110582147495734e-05,0.0,0,392.0,760.0,1.0,1688.0,0,0.0,0.0
431,431,-0.5216191288857663,-0.5,1,292.0,983.0,1.0,585.0,1,0.0,0.0
432,432,0.9171707941230134,0.9,0,385.0,996.0,0.0,249.0,1,0.0,0.0
433,433,-0.8972507087278396,-0.9,1,499.0,584.0,1.0,227.0,1,0.0,0.0
434,434,0.518290100357697,0.5,0,489.0,840.0,0.0,621.0,1,0.0,0.0
435,435,0.05985997310578295,0.1,0,410.0,822.0,1.0,878.0,0,0.0,0.0
436,436,-0.8564570062437182,-0.9,1,264.0,551.0,1.0,625.0,1,0.0,0.0
437,437,-0.8261985020539504,-0.8,1,303.0,958.0,1.0,609.0,1,0.0,0.0
438,438,-0.9285142321328383,-0.9,1,380.0,502.0,1.0,368.0,1,0.0,0.0
439,439,0.6820338563000616,0.7,0,321.0,736.0,0.0,563.0,1,0.0,0.0
440,440,-0.04809722885003831,-0.0,1,384.0,941.0,1.0,305.0,1,0.0,0.0
441,441,-0.5199820566358253,-0.5,1,473.0,937.0,1.0,680.0,1,0.0,0.0
442,442,0.10982468017166513,0.1,0,409.0,528.0,1.0,3933.0,0,0.0,0.0
443,443,-0.8910979193563366,-0.9,1,418.0,905.0,1.0,607.0,1,0.0,0.0
444,444,-0.37694500433075717,-0.4,1,399.0,553.0,1.0,728.0,1,0.0,0.0
445,445,-0.022675903386043084,-0.0,1,495.0,964.0,1.0,751.0,1,0.0,0.0
446,446,0.2834117077644782,0.3,0,292.0,972.0,0.0,356.0,1,0.0,0.0
447,447,-0.2811259907768453,-0.3,1,395.0,584.0,1.0,671.0,1,0.0,0.0
448,448,-0.6278684170071147,-0.6,1,367.0,922.0,1.0,341.0,1,0.0,0.0
449,449,-0.3559587582310555,-0.4,1,402.0,813.0,1.0,235.0,1,0.0,0.0
450,450,0.4046167630465558,0.4,0,328.0,543.0,0.0,669.0,1,0.0,0.0
451,451,0.23121428592936955,0.2,0,400.0,627.0,0.0,1183.0,1,0.0,0.0
452,452,0.7973096277645728,0.8,0,342.0,710.0,0.0,368.0,1,0.0,0.0
453,453,0.3941985193218558,0.4,0,323.0,679.0,0.0,418.0,1,0.0,0.0
454,454,0.015457055710975443,0.0,0,408.0,620.0,1.0,1152.0,0,0.0,0.0
455,455,0.1583033145784074,0.2,0,392.0,605.0,0.0,3653.0,1,0.0,0.0
456,456,-0.4366368391721722,-0.4,1,336.0,906.0,1.0,448.0,1,0.0,0.0
457,457,-0.10747573878969008,-0.1,1,443.0,944.0,1.0,813.0,1,0.0,0.0
458,458,0.7238085389243429,0.7,0,386.0,998.0,0.0,346.0,1,0.0,0.0
459,459,0.3640508090449255,0.4,0,475.0,740.0,0.0,585.0,1,0.0,0.0
460,460,-0.922242997503208,-0.9,1,476.0,856.0,1.0,248.0,1,0.0,0.0
461,461,0.12677970833130803,0.1,0,283.0,743.0,1.0,1054.0,0,0.0,0.0
462,462,0.028977543513118542,0.0,0,313.0,642.0,1.0,915.0,0,0.0,0.0
463,463,-0.6346241157052905,-0.6,1,356.0,946.0,1.0,478.0,1,0.0,0.0
464,464,0.16767246124137136,0.2,0,422.0,882.0,0.0,876.0,1,0.0,0.0
465,465,0.3465740306801077,0.3,0,435.0,559.0,0.0,1076.0,1,0.0,0.0
466,466,-0.0879773730707627,-0.1,1,354.0,571.0,1.0,655.0,1,0.0,0.0
467,467,-0.3662291540499836,-0.4,1,462.0,706.0,1.0,1042.0,1,0.0,0.0
468,468,0.17269995462736953,0.2,0,365.0,544.0,0.0,631.0,1,0.0,0.0
469,469,-0.8735994560565394,-0.9,1,280.0,832.0,1.0,508.0,1,0.0,0.0
470,470,0.14560479186385789,0.1,0,394.0,843.0,0.0,1353.0,1,0.0,0.0
471,471,-0.41177997534581845,-0.4,1,381.0,820.0,1.0,329.0,1,0.0,0.0
472,472,0.8568393369682286,0.9,0,419.0,698.0,0.0,243.0,1,0.0,0.0
473,473,0.27837668687137174,0.3,0,428.0,756.0,0.0,1086.0,1,0.0,0.0
474,474,0.30122467984752577,0.3,0,498.0,960.0,0.0,282.0,1,0.0,0.0
475,475,-0.6566811342864889,-0.7,1,476.0,618.0,1.0,276.0,1,0.0,0.0
476,476,0.3728978745713192,0.4,0,473.0,536.0,0.0,501.0,1,0.0,0.0
477,477,0.03300407057883836,0.0,0,364.0,788.0,1.0,3698.0,0,0.0,0.0
478,478,0.10244209307496965,0.1,0,473.0,909.0,1.0,2048.0,0,0.0,0.0
479,479,0.6566847719833095,0.7,0,486.0,862.0,0.0,552.0,1,0.0,0.0
480,480,-0.49718990715749967,-0.5,1,286.0,878.0,1.0,316.0,1,0.0,0.0
481,481,0.4395997367756337,0.4,0,254.0,729.0,0.0,407.0,1,0.0,0.0
482,482,-0.1960285747974182,-0.2,1,444.0,765.0,1.0,471.0,1,0.0,0.0
483,483,0.34797991741614354,0.3,0,415.0,804.0,0.0,1291.0,1,0.0,0.0
484,484,-0.7874626414615027,-0.8,1,308.0,959.0,1.0,313.0,1,0.0,0.0
485,485,-0.15191494489142654,-0.2,1,404.0,607.0,1.0,739.0,1,0.0,0.0
486,486,1.0789908069464005e-05,0.0,0,355.0,903.0,1.0,412.0,0,0.0,0.0
487,487,-0.15031622432186675,-0.2,1,458.0,762.0,1.0,420.0,1,0.0,0.0
488,488,-0.3297030817897284,-0.3,1,275.0,715.0,1.0,540.0,1,0.0,0.0
489,489,-0.5627177902906244,-0.6,1,316.0,853.0,1.0,241.0,1,0.0,0.0
490,490,-0.161160128457716,-0.2,1,430.0,513.0,1.0,707.0,1,0.0,0.0
491,491,-0.2164172591374045,-0.2,1,396.0,636.0,1.0,378.0,1,0.0,0.0
492,492,0.8034449008412219,0.8,0,334.0,956.0,0.0,540.0,1,0.0,0.0
493,493,0.7846338243438309,0.8,0,340.0,539.0,0.0,281.0,1,0.0,0.0
494,494,-0.8155830917178111,-0.8,1,375.0,769.0,1.0,546.0,1,0.0,0.0
495,495,0.12325654346893389,0.1,0,362.0,677.0,0.0,591.0,1,0.0,0.0
496,496,0.6234827864001806,0.6,0,334.0,855.0,0.0,281.0,1,0.0,0.0
497,497,-0.3772141210170239,-0.4,1,407.0,876.0,1.0,807.0,1,0.0,0.0
498,498,-0.7731909464738751,-0.8,1,277.0,856.0,1.0,307.0,1,0.0,0.0
499,499,0.37564365191453275,0.4,0,316.0,698.0,0.0,566.0,1,0.0,0.0
500,500,0.05894038734739704,0.1,0,286.0,851.0,1.0,1123.0,0,0.0,0.0
501,501,-0.862564629155741,-0.9,1,302.0,522.0,1.0,266.0,1,0.0,0.0
502,502,0.5556453698574388,0.6,0,312.0,675.0,0.0,523.0,1,0.0,0.0
503,503,-0.37324892730132087,-0.4,1,438.0,720.0,1.0,352.0,1,0.0,0.0
504,504,-0.21155100243225933,-0.2,1,334.0,576.0,1.0,530.0,1,0.0,0.0
505,505,0.33333036108879854,0.3,0,398.0,943.0,0.0,729.0,1,0.0,0.0
506,506,-0.028979569667168192,-0.0,1,256.0,819.0,1.0,505.0,1,0.0,0.0
507,507,0.25765151020201893,0.3,0,419.0,922.0,1.0,609.0,0,0.0,0.0
508,508,-0.20106968983592322,-0.2,1,282.0,627.0,1.0,831.0,1,0.0,0.0
509,509,0.10844393395560314,0.1,0,276.0,781.0,0.0,973.0,1,0.0,0.0
510,510,-0.30815810080582917,-0.3,1,377.0,769.0,1.0,374.0,1,0.0,0.0
511,511,0.07697948565449253,0.1,0,447.0,568.0,0.0,1395.0,1,0.0,0.0
512,512,-0.22535189976366898,-0.2,1,255.0,721.0,1.0,864.0,1,0.0,0.0
513,513,0.46847936965221093,0.5,0,371.0,528.0,0.0,511.0,1,0.0,0.0
514,514,-0.34620845734666617,-0.3,1,487.0,559.0,1.0,574.0,1,0.0,0.0
515,515,-0.4920247374987017,-0.5,1,493.0,685.0,1.0,192.0,1,0.0,0.0
516,516,-0.4321987240981662,-0.4,1,456.0,882.0,1.0,362.0,1,0.0,0.0
517,517,0.4100380138898061,0.4,0,376.0,566.0,0.0,478.0,1,0.0,0.0
518,518,0.7678882937053375,0.8,0,288.0,590.0,0.0,292.0,1,0.0,0.0
519,519,0.9995337947323357,1.0,0,331.0,550.0,0.0,319.0,1,0.0,0.0
520,520,0.9861038680098126,1.0,0,460.0,804.0,0.0,286.0,1,0.0,0.0
521,521,0.9305438277858205,0.9,0,371.0,945.0,0.0,314.0,1,0.0,0.0
522,522,-0.38411811536364104,-0.4,1,419.0,711.0,1.0,690.0,1,0.0,0.0
523,523,-0.5299680900723909,-0.5,1,284.0,504.0,1.0,312.0,1,0.0,0.0
524,524,-0.16520323756273325,-0.2,1,451.0,702.0,1.0,287.0,1,0.0,0.0
525,525,-0.9725942790184099,-1.0,1,290.0,718.0,1.0,202.0,1,0.0,0.0
526,526,-0.29458088227904633,-0.3,1,492.0,985.0,1.0,913.0,1,0.0,0.0
527,527,-0.3285092957936042,-0.3,1,430.0,516.0,1.0,1404.0,1,0.0,0.0
528,528,-0.08618883387470744,-0.1,1,422.0,523.0,1.0,395.0,1,0.0,0.0
529,529,0.11012408174369659,0.1,0,433.0,622.0,0.0,585.0,1,0.0,0.0
530,530,0.5651958014123739,0.6,0,402.0,614.0,0.0,464.0,1,0.0,0.0
531,531,-0.8303567029378267,-0.8,1,371.0,786.0,1.0,433.0,1,0.0,0.0
532,532,0.794616983150189,0.8,0,467.0,835.0,0.0,408.0,1,0.0,0.0
533,533,0.49578133490326715,0.5,0,430.0,810.0,0.0,480.0,1,0.0,0.0
534,534,0.24298254240779293,0.2,0,437.0,578.0,0.0,745.0,1,0.0,0.0
535,535,-0.8493872961206617,-0.8,1,422.0,807.0,1.0,221.0,1,0.0,0.0
536,536,-0.20104463400262684,-0.2,1,414.0,874.0,1.0,872.0,1,0.0,0.0
537,537,0.8218787736267281,0.8,0,486.0,654.0,0.0,380.0,1,0.0,0.0
538,538,-0.4251154797998147,-0.4,1,451.0,968.0,1.0,371.0,1,0.0,0.0
539,539,0.23840148103189063,0.2,0,428.0,951.0,0.0,2511.0,1,0.0,0.0
540,540,-0.24574871676838583,-0.2,1,336.0,691.0,1.0,353.0,1,0.0,0.0
541,541,0.5594840262122724,0.6,0,474.0,827.0,0.0,449.0,1,0.0,0.0
542,542,-0.5057070082872717,-0.5,1,300.0,530.0,1.0,430.0,1,0.0,0.0
543,543,0.49231292289867956,0.5,0,406.0,625.0,0.0,1129.0,1,0.0,0.0
544,544,-0.39863096355237704,-0.4,1,292.0,540.0,1.0,598.0,1,0.0,0.0
545,545,0.5885022961763209,0.6,0,318.0,814.0,0.0,318.0,1,0.0,0.0
546,546,-0.9031519031717994,-0.9,1,453.0,997.0,1.0,450.0,1,0.0,0.0
547,547,0.34398833838188847,0.3,0,480.0,891.0,0.0,1009.0,1,0.0,0.0
548,548,-0.3261896553981827,-0.3,1,384.0,542.0,1.0,524.0,1,0.0,0.0
549,549,0.9006244543380202,0.9,0,438.0,638.0,0.0,234.0,1,0.0,0.0
550,550,-0.2678522992712069,-0.3,1,329.0,618.0,1.0,413.0,1,0.0,0.0
551,551,0.8118226129606487,0.8,0,295.0,945.0,0.0,340.0,1,0.0,0.0
552,552,0.5390906022526005,0.5,0,372.0,691.0,0.0,487.0,1,0.0,0.0
553,553,-0.6849398327311162,-0.7,1,436.0,585.0,1.0,359.0,1,0.0,0.0
554,554,-0.43800426925976854,-0.4,1,428.0,528.0,1.0,364.0,1,0.0,0.0
555,555,-0.23600636302260702,-0.2,1,479.0,966.0,1.0,325.0,1,0.0,0.0
556,556,0.7412373985667919,0.7,0,290.0,667.0,0.0,273.0,1,0.0,0.0
557,557,-0.7829911122532807,-0.8,1,306.0,810.0,1.0,944.0,1,0.0,0.0
558,558,0.2710335476478243,0.3,0,445.0,943.0,0.0,522.0,1,0.0,0.0
559,559,0.7773131195025182,0.8,0,494.0,539.0,0.0,227.0,1,0.0,0.0
560,560,0.000523785807877486,0.0,0,459.0,703.0,1.0,388.0,0,0.0,0.0
561,561,-0.2893547496637674,-0.3,1,497.0,807.0,1.0,556.0,1,0.0,0.0
562,562,-0.17285986607218984,-0.2,1,268.0,961.0,1.0,1581.0,1,0.0,0.0
563,563,-0.7129148144966986,-0.7,1,421.0,554.0,1.0,215.0,1,0.0,0.0
564,564,-0.2604741462968361,-0.3,1,314.0,667.0,1.0,389.0,1,0.0,0.0
565,565,0.7922995594726043,0.8,0,477.0,789.0,0.0,494.0,1,0.0,0.0
566,566,0.560948120548876,0.6,0,466.0,847.0,0.0,357.0,1,0.0,0.0
567,567,0.276483152959643,0.3,0,448.0,797.0,0.0,315.0,1,0.0,0.0
568,568,0.32762234600691786,0.3,0,332.0,785.0,0.0,2373.0,1,0.0,0.0
569,569,0.7888925256983688,0.8,0,355.0,613.0,0.0,332.0,1,0.0,0.0
570,570,-0.24568501224720074,-0.2,1,346.0,558.0,1.0,866.0,1,0.0,0.0
571,571,0.2521837682226271,0.3,0,446.0,927.0,0.0,517.0,1,0.0,0.0
572,572,0.32552238354557184,0.3,0,437.0,555.0,0.0,738.0,1,0.0,0.0
573,573,-0.8905227765883132,-0.9,1,454.0,983.0,1.0,303.0,1,0.0,0.0
574,574,0.42795241209856116,0.4,0,271.0,674.0,0.0,265.0,1,0.0,0.0
575,575,-0.2396394739307408,-0.2,1,358.0,675.0,1.0,297.0,1,0.0,0.0
576,576,0.39680918379853014,0.4,0,285.0,851.0,0.0,624.0,1,0.0,0.0
577,577,-0.08789927814641363,-0.1,1,428.0,618.0,1.0,2424.0,1,0.0,0.0
578,578,0.2841502855133704,0.3,0,467.0,719.0,0.0,874.0,1,0.0,0.0
579,579,-0.5709880032691237,-0.6,1,421.0,895.0,1.0,314.0,1,0.0,0.0
580,580,0.3715111775638129,0.4,0,472.0,527.0,0.0,681.0,1,0.0,0.0
581,581,-0.774899765516105,-0.8,1,450.0,814.0,1.0,266.0,1,0.0,0.0
582,582,0.653328264866085,0.7,0,420.0,687.0,0.0,403.0,1,0.0,0.0
583,583,0.9350172198498528,0.9,0,409.0,872.0,0.0,189.0,1,0.0,0.0
584,584,0.9919827532283534,1.0,0,486.0,769.0,0.0,345.0,1,0.0,0.0
585,585,0.13516376872425506,0.1,0,318.0,655.0,1.0,1227.0,0,0.0,0.0
586,586,0.03289153425175062,0.0,0,321.0,725.0,1.0,594.0,0,0.0,0.0
587,587,-0.5868648039718989,-0.6,1,453.0,729.0,1.0,118.0,1,0.0,0.0
588,588,0.49759144875975503,0.5,0,254.0,541.0,0.0,675.0,1,0.0,0.0
589,589,-0.5728468175925738,-0.6,1,257.0,764.0,1.0,389.0,1,0.0,0.0
590,590,-0.3318687867764927,-0.3,1,355.0,554.0,1.0,301.0,1,0.0,0.0
591,591,-0.042563803762573515,-0.0,1,321.0,638.0,1.0,1631.0,1,0.0,0.0
592,592,-0.4025955312967002,-0.4,1,303.0,615.0,1.0,372.0,1,0.0,0.0
593,593,-0.6448971981362643,-0.6,1,267.0,950.0,1.0,373.0,1,0.0,0.0
594,594,0.5377002181821906,0.5,0,408.0,621.0,0.0,381.0,1,0.0,0.0
595,595,-0.8356907146462511,-0.8,1,352.0,796.0,1.0,402.0,1,0.0,0.0
596,596,-0.9171732575509721,-0.9,1,342.0,964.0,1.0,484.0,1,0.0,0.0
597,597,-0.3919165721403248,-0.4,1,426.0,847.0,1.0,577.0,1,0.0,0.0
598,598,-0.912106146808757,-0.9,1,261.0,726.0,1.0,253.0,1,0.0,0.0
599,599,-0.1726891215099815,-0.2,1,291.0,845.0,1.0,234.0,1,0.0,0.0
600,600,0.948532196025601,0.9,0,280.0,822.0,0.0,238.0,1,0.0,0.0
601,601,0.8767382987060999,0.9,0,293.0,978.0,0.0,209.0,1,0.0,0.0
602,602,0.11857392282026225,0.1,0,319.0,812.0,1.0,2329.0,0,0.0,0.0
603,603,0.16724875729529032,0.2,0,334.0,782.0,0.0,2364.0,1,0.0,0.0
604,604,-0.3854942171096547,-0.4,1,319.0,934.0,1.0,287.0,1,0.0,0.0
605,605,-0.19476985817869275,-0.2,1,293.0,580.0,1.0,507.0,1,0.0,0.0
606,606,0.37925286568858896,0.4,0,465.0,641.0,0.0,994.0,1,0.0,0.0
607,607,0.7530048235787401,0.8,0,454.0,545.0,0.0,321.0,1,0.0,0.0
608,608,-0.048280182732112875,-0.0,1,417.0,831.0,1.0,832.0,1,0.0,0.0
609,609,0.22774499947160742,0.2,0,341.0,584.0,0.0,505.0,1,0.0,0.0
610,610,0.514932590868419,0.5,0,463.0,904.0,0.0,273.0,1,0.0,0.0
611,611,-0.7319653888371831,-0.7,1,366.0,744.0,1.0,400.0,1,0.0,0.0
612,612,-0.734578378396652,-0.7,1,287.0,535.0,1.0,378.0,1,0.0,0.0
613,613,0.9350754201421363,0.9,0,290.0,598.0,0.0,192.0,1,0.0,0.0
614,614,0.33990863535149995,0.3,0,252.0,580.0,0.0,1558.0,1,0.0,0.0
615,615,-0.5104078108666004,-0.5,1,404.0,829.0,1.0,547.0,1,0.0,0.0
616,616,-0.8663972038840091,-0.9,1,401.0,654.0,1.0,335.0,1,0.0,0.0
617,617,-0.6714461905962921,-0.7,1,276.0,687.0,1.0,1837.0,1,0.0,0.0
618,618,-0.36229573314189634,-0.4,1,402.0,655.0,1.0,283.0,1,0.0,0.0
619,619,0.2528249124262061,0.3,0,452.0,502.0,0.0,1206.0,1,0.0,0.0
620,620,-0.8595172149447818,-0.9,1,456.0,854.0,1.0,310.0,1,0.0,0.0
621,621,-0.2388667469956527,-0.2,1,411.0,934.0,1.0,525.0,1,0.0,0.0
622,622,-0.4686283928581223,-0.5,1,376.0,862.0,1.0,542.0,1,0.0,0.0
623,623,0.9254381870569757,0.9,0,377.0,670.0,0.0,383.0,1,0.0,0.0
624,624,0.9822197250519582,1.0,0,288.0,622.0,0.0,450.0,1,0.0,0.0
625,625,-0.9619462170231103,-1.0,1,257.0,565.0,1.0,458.0,1,0.0,0.0
626,626,0.15768793415327798,0.2,0,354.0,862.0,0.0,1274.0,1,0.0,0.0
627,627,-0.808426450809562,-0.8,1,278.0,782.0,1.0,310.0,1,0.0,0.0
628,628,-0.6412195515858168,-0.6,1,284.0,705.0,1.0,631.0,1,0.0,0.0
629,629,0.9670999436178591,1.0,0,365.0,718.0,0.0,407.0,1,0.0,0.0
630,630,0.28608388870942525,0.3,0,367.0,501.0,0.0,682.0,1,0.0,0.0
631,631,0.9688589602371243,1.0,0,435.0,847.0,0.0,488.0,1,0.0,0.0
632,632,-0.3158148593190151,-0.3,1,477.0,951.0,1.0,1682.0,1,0.0,0.0
633,633,-0.15470207461944785,-0.2,1,318.0,764.0,1.0,358.0,1,0.0,0.0
634,634,-0.8872188903157241,-0.9,1,408.0,576.0,1.0,266.0,1,0.0,0.0
635,635,0.36283383316590245,0.4,0,379.0,550.0,0.0,671.0,1,0.0,0.0
636,636,-0.26162671234595525,-0.3,1,378.0,657.0,1.0,325.0,1,0.0,0.0
637,637,-0.007894829544722981,-0.0,1,331.0,709.0,1.0,330.0,1,0.0,0.0
638,638,-0.7085054141971867,-0.7,1,447.0,740.0,1.0,333.0,1,0.0,0.0
639,639,0.0978326655878834,0.1,0,264.0,514.0,1.0,812.0,0,0.0,0.0
640,640,-0.08675378855214433,-0.1,1,310.0,637.0,1.0,843.0,1,0.0,0.0
641,641,-0.9743550982917368,-1.0,1,431.0,597.0,1.0,262.0,1,0.0,0.0
642,642,0.895692639413155,0.9,0,418.0,651.0,0.0,361.0,1,0.0,0.0
643,643,-0.16617158452530756,-0.2,1,278.0,537.0,1.0,695.0,1,0.0,0.0
644,644,0.03253377411791947,0.0,0,496.0,592.0,1.0,1212.0,0,0.0,0.0
645,645,-0.8566015757397878,-0.9,1,329.0,630.0,1.0,241.0,1,0.0,0.0
646,646,-0.8414509649752084,-0.8,1,407.0,627.0,1.0,316.0,1,0.0,0.0
647,647,0.2358771614651738,0.2,0,256.0,949.0,0.0,515.0,1,0.0,0.0
648,648,-0.858938322263108,-0.9,1,458.0,645.0,1.0,397.0,1,0.0,0.0
649,649,0.5860585345581037,0.6,0,285.0,596.0,0.0,629.0,1,0.0,0.0
650,650,-0.8049214810320175,-0.8,1,431.0,823.0,1.0,486.0,1,0.0,0.0
651,651,-0.9386811002347677,-0.9,1,489.0,609.0,1.0,192.0,1,0.0,0.0
652,652,-0.9693435243036894,-1.0,1,464.0,670.0,1.0,386.0,1,0.0,0.0
653,653,-0.6309450074664715,-0.6,1,335.0,729.0,1.0,296.0,1,0.0,0.0
654,654,-0.6167289096372521,-0.6,1,441.0,767.0,1.0,1772.0,1,0.0,0.0
655,655,-0.1054184713948969,-0.1,1,404.0,883.0,1.0,1283.0,1,0.0,0.0
656,656,-0.26824897673477155,-0.3,1,473.0,646.0,1.0,911.0,1,0.0,0.0
657,657,0.7988671906401266,0.8,0,452.0,524.0,0.0,264.0,1,0.0,0.0
658,658,0.5108985064565255,0.5,0,374.0,871.0,0.0,255.0,1,0.0,0.0
659,659,-0.2878787555745659,-0.3,1,495.0,544.0,1.0,591.0,1,0.0,0.0
660,660,0.5023064825016519,0.5,0,448.0,594.0,0.0,1078.0,1,0.0,0.0
661,661,-0.8976585607745178,-0.9,1,395.0,593.0,1.0,322.0,1,0.0,0.0
662,662,-0.5718651871436626,-0.6,1,395.0,990.0,1.0,1375.0,1,0.0,0.0
663,663,0.2138197810908522,0.2,0,298.0,578.0,0.0,804.0,1,0.0,0.0
664,664,-0.7298414745566446,-0.7,1,403.0,589.0,1.0,128.0,1,0.0,0.0
665,665,0.9195601381364491,0.9,0,445.0,706.0,0.0,229.0,1,0.0,0.0
666,666,-0.5340523529573071,-0.5,1,255.0,835.0,1.0,410.0,1,0.0,0.0
667,667,0.5186416838814838,0.5,0,298.0,871.0,0.0,501.0,1,0.0,0.0
668,668,0.47929078105617506,0.5,0,311.0,550.0,0.0,519.0,1,0.0,0.0
669,669,0.782160925761171,0.8,0,378.0,535.0,0.0,307.0,1,0.0,0.0
670,670,-0.9204380085158734,-0.9,1,451.0,517.0,1.0,312.0,1,0.0,0.0
671,671,-0.11860910515989609,-0.1,1,250.0,970.0,1.0,420.0,1,0.0,0.0
672,672,-0.4431793198854477,-0.4,1,441.0,812.0,1.0,317.0,1,0.0,0.0
673,673,-0.7213534542532238,-0.7,1,287.0,992.0,1.0,241.0,1,0.0,0.0
674,674,0.4489773050131307,0.4,0,440.0,724.0,0.0,676.0,1,0.0,0.0
675,675,-0.7493926950223242,-0.7,1,285.0,630.0,1.0,325.0,1,0.0,0.0
676,676,0.8736786011263353,0.9,0,250.0,998.0,0.0,252.0,1,0.0,0.0
677,677,0.7457517960861233,0.7,0,469.0,654.0,0.0,337.0,1,0.0,0.0
678,678,-0.010716723235364434,-0.0,1,468.0,871.0,1.0,2311.0,1,0.0,0.0
679,679,0.6608820259949932,0.7,0,382.0,714.0,0.0,424.0,1,0.0,0.0
680,680,-0.06793317147854894,-0.1,1,433.0,956.0,1.0,581.0,1,0.0,0.0
681,681,0.6711096157095322,0.7,0,328.0,948.0,0.0,324.0,1,0.0,0.0
682,682,0.508791710665004,0.5,0,386.0,936.0,0.0,568.0,1,0.0,0.0
683,683,-0.8493351681986112,-0.8,1,349.0,694.0,1.0,297.0,1,0.0,0.0
684,684,-0.6755639303127603,-0.7,1,350.0,658.0,1.0,492.0,1,0.0,0.0
685,685,-0.8656969122423719,-0.9,1,343.0,624.0,1.0,343.0,1,0.0,0.0
686,686,0.773731869413345,0.8,0,487.0,567.0,0.0,246.0,1,0.0,0.0
687,687,0.6910532230948927,0.7,0,266.0,665.0,0.0,269.0,1,0.0,0.0
688,688,0.47287804699463454,0.5,0,315.0,861.0,0.0,1354.0,1,0.0,0.0
689,689,0.34451862252356835,0.3,0,264.0,697.0,0.0,529.0,1,0.0,0.0
690,690,0.0960506620008148,0.1,0,464.0,739.0,0.0,327.0,1,0.0,0.0
691,691,0.2567308731344671,0.3,0,306.0,532.0,0.0,672.0,1,0.0,0.0
692,692,-0.41496177569739534,-0.4,1,346.0,772.0,1.0,502.0,1,0.0,0.0
693,693,0.8626902728055068,0.9,0,323.0,796.0,0.0,321.0,1,0.0,0.0
694,694,0.25052386293295936,0.3,0,285.0,802.0,1.0,3913.0,0,0.0,0.0
695,695,-0.494955956795863,-0.5,1,390.0,865.0,1.0,255.0,1,0.0,0.0
696,696,-0.9808405313213282,-1.0,1,314.0,926.0,1.0,290.0,1,0.0,0.0
697,697,0.02723052579103813,0.0,0,384.0,724.0,1.0,2602.0,0,0.0,0.0
698,698,0.13948112267422297,0.1,0,465.0,968.0,0.0,2387.0,1,0.0,0.0
699,699,-0.1807512515667975,-0.2,1,437.0,586.0,1.0,867.0,1,0.0,0.0
700,700,0.10085856075460486,0.1,0,317.0,714.0,1.0,3139.0,0,0.0,0.0
701,701,0.3455392487272284,0.3,0,323.0,722.0,0.0,985.0,1,0.0,0.0
702,702,-0.34579569336803573,-0.3,1,386.0,912.0,1.0,352.0,1,0.0,0.0
703,703,-0.2124254406719892,-0.2,1,459.0,546.0,1.0,715.0,1,0.0,0.0
704,704,-0.45773727103323636,-0.5,1,389.0,611.0,1.0,340.0,1,0.0,0.0
705,705,-0.6320206570916995,-0.6,1,425.0,694.0,1.0,1051.0,1,0.0,0.0
706,706,-0.736538095239472,-0.7,1,292.0,590.0,1.0,308.0,1,0.0,0.0
707,707,0.3653490335350664,0.4,0,453.0,789.0,0.0,458.0,1,0.0,0.0
708,708,-0.9413273157189257,-0.9,1,316.0,543.0,1.0,191.0,1,0.0,0.0
709,709,0.9014144133462869,0.9,0,490.0,696.0,0.0,304.0,1,0.0,0.0
710,710,-0.25219747167457074,-0.3,1,313.0,999.0,1.0,918.0,1,0.0,0.0
711,711,-0.2290798336548343,-0.2,1,488.0,602.0,1.0,440.0,1,0.0,0.0
712,712,0.853887535875713,0.9,0,296.0,657.0,0.0,257.0,1,0.0,0.0
713,713,-0.4458143360820359,-0.4,1,340.0,798.0,1.0,392.0,1,0.0,0.0
714,714,-0.8352265653064481,-0.8,1,321.0,625.0,1.0,434.0,1,0.0,0.0
715,715,0.673660218888112,0.7,0,292.0,748.0,0.0,340.0,1,0.0,0.0
716,716,-0.13902144582903708,-0.1,1,364.0,717.0,1.0,309.0,1,0.0,0.0
717,717,0.19329080032573964,0.2,0,388.0,832.0,0.0,420.0,1,0.0,0.0
718,718,0.04906362531182107,0.0,0,282.0,943.0,0.0,3775.0,1,0.0,0.0
719,719,-0.1146428116344802,-0.1,1,315.0,636.0,1.0,959.0,1,0.0,0.0
720,720,-0.4690833655672346,-0.5,1,405.0,784.0,1.0,421.0,1,0.0,0.0
721,721,-0.9494713126714631,-0.9,1,303.0,755.0,1.0,742.0,1,0.0,0.0
722,722,0.13732722150955867,0.1,0,325.0,716.0,0.0,1359.0,1,0.0,0.0
723,723,-0.07835636573634153,-0.1,1,360.0,515.0,1.0,505.0,1,0.0,0.0
724,724,0.10182223532041346,0.1,0,283.0,858.0,1.0,1149.0,0,0.0,0.0
725,725,0.3403407400579823,0.3,0,472.0,701.0,0.0,367.0,1,0.0,0.0
726,726,0.7048597529168732,0.7,0,278.0,527.0,0.0,515.0,1,0.0,0.0
727,727,0.8735352757649562,0.9,0,401.0,955.0,0.0,254.0,1,0.0,0.0
728,728,0.3859363366820634,0.4,0,252.0,725.0,0.0,663.0,1,0.0,0.0
729,729,-0.15183732667652872,-0.2,1,403.0,958.0,1.0,899.0,1,0.0,0.0
730,730,0.039238567530555324,0.0,0,364.0,543.0,1.0,253.0,0,0.0,0.0
731,731,0.5154163052955938,0.5,0,389.0,799.0,0.0,452.0,1,0.0,0.0
732,732,0.5456328436464186,0.5,0,275.0,511.0,0.0,474.0,1,0.0,0.0
733,733,-0.08309268569325501,-0.1,1,292.0,679.0,1.0,419.0,1,0.0,0.0
734,734,-0.6554206485944121,-0.7,1,345.0,951.0,1.0,204.0,1,0.0,0.0
735,735,-0.549904351065077,-0.5,1,353.0,579.0,1.0,858.0,1,0.0,0.0
736,736,-0.936708068419005,-0.9,1,398.0,621.0,1.0,291.0,1,0.0,0.0
737,737,0.747435552255733,0.7,0,263.0,929.0,0.0,778.0,1,0.0,0.0
738,738,0.5348552481721474,0.5,0,334.0,856.0,0.0,230.0,1,0.0,0.0
739,739,-0.7822299569179081,-0.8,1,468.0,941.0,1.0,331.0,1,0.0,0.0
740,740,0.017989512387529105,0.0,0,443.0,664.0,1.0,2233.0,0,0.0,0.0
741,741,0.8845321275986018,0.9,0,332.0,716.0,0.0,282.0,1,0.0,0.0
742,742,0.3130076026289339,0.3,0,387.0,702.0,0.0,2121.0,1,0.0,0.0
743,743,-0.6364765614188979,-0.6,1,338.0,847.0,1.0,245.0,1,0.0,0.0
744,744,-0.9404025103696825,-0.9,1,490.0,761.0,1.0,419.0,1,0.0,0.0
745,745,0.09774102711867028,0.1,0,338.0,620.0,1.0,1832.0,0,0.0,0.0
746,746,-0.9747599724186411,-1.0,1,252.0,977.0,1.0,321.0,1,0.0,0.0
747,747,0.31803002144318304,0.3,0,314.0,913.0,0.0,353.0,1,0.0,0.0
748,748,0.37553151080420566,0.4,0,433.0,792.0,0.0,755.0,1,0.0,0.0
749,749,0.6403948146506304,0.6,0,387.0,835.0,0.0,418.0,1,0.0,0.0
750,750,-0.8216841614443047,-0.8,1,446.0,998.0,1.0,296.0,1,0.0,0.0
751,751,-0.07527573873283089,-0.1,1,473.0,520.0,1.0,467.0,1,0.0,0.0
752,752,0.15684291486728918,0.2,0,372.0,651.0,0.0,787.0,1,0.0,0.0
753,753,0.574480375129852,0.6,0,427.0,586.0,0.0,407.0,1,0.0,0.0
754,754,-0.5254844325826069,-0.5,1,437.0,872.0,1.0,521.0,1,0.0,0.0
755,755,-0.672693605553538,-0.7,1,493.0,502.0,1.0,535.0,1,0.0,0.0
756,756,-0.10557272121097983,-0.1,1,267.0,993.0,1.0,820.0,1,0.0,0.0
757,757,0.9005778531486672,0.9,0,495.0,718.0,0.0,247.0,1,0.0,0.0
758,758,-0.6135129536992077,-0.6,1,331.0,847.0,1.0,152.0,1,0.0,0.0
759,759,-0.0755676398514753,-0.1,1,337.0,784.0,1.0,399.0,1,0.0,0.0
760,760,-0.25405376354837683,-0.3,1,453.0,911.0,1.0,666.0,1,0.0,0.0
761,761,-0.40378765983578524,-0.4,1,363.0,640.0,1.0,537.0,1,0.0,0.0
762,762,-0.8061524224444223,-0.8,1,326.0,546.0,1.0,258.0,1,0.0,0.0
763,763,0.1733240853562037,0.2,0,440.0,923.0,0.0,1217.0,1,0.0,0.0
764,764,0.29339830295731306,0.3,0,303.0,553.0,0.0,404.0,1,0.0,0.0
765,765,0.4437606622893717,0.4,0,451.0,867.0,0.0,532.0,1,0.0,0.0
766,766,0.5565679663549745,0.6,0,341.0,572.0,0.0,337.0,1,0.0,0.0
767,767,0.7732274649040991,0.8,0,451.0,940.0,0.0,469.0,1,0.0,0.0
768,768,0.6084221031205703,0.6,0,476.0,657.0,0.0,437.0,1,0.0,0.0
769,769,0.8141983744346708,0.8,0,294.0,558.0,0.0,448.0,1,0.0,0.0
770,770,0.6355336661773108,0.6,0,305.0,980.0,0.0,385.0,1,0.0,0.0
771,771,-0.5188739680290011,-0.5,1,262.0,927.0,1.0,211.0,1,0.0,0.0
772,772,-0.5316511066793406,-0.5,1,325.0,707.0,1.0,1278.0,1,0.0,0.0
773,773,-0.28348148448197796,-0.3,1,271.0,588.0,1.0,341.0,1,0.0,0.0
774,774,0.1918306906743743,0.2,0,334.0,723.0,0.0,2813.0,1,0.0,0.0
775,775,0.30602028974243023,0.3,0,401.0,561.0,0.0,1748.0,1,0.0,0.0
776,776,0.7972350962997132,0.8,0,456.0,829.0,0.0,495.0,1,0.0,0.0
777,777,-0.19631212444575552,-0.2,1,438.0,683.0,1.0,859.0,1,0.0,0.0
778,778,0.36211522530240936,0.4,0,389.0,616.0,0.0,435.0,1,0.0,0.0
779,779,0.3492780677929703,0.3,0,443.0,739.0,0.0,238.0,1,0.0,0.0
780,780,-0.24303031892837046,-0.2,1,418.0,813.0,1.0,239.0,1,0.0,0.0
781,781,-0.6699309612203062,-0.7,1,376.0,757.0,1.0,247.0,1,0.0,0.0
782,782,0.63823451150518,0.6,0,278.0,547.0,0.0,695.0,1,0.0,0.0
783,783,0.623803300873023,0.6,0,313.0,896.0,0.0,401.0,1,0.0,0.0
784,784,-0.32788512511288337,-0.3,1,259.0,817.0,1.0,1004.0,1,0.0,0.0
785,785,0.22983807902732112,0.2,0,433.0,623.0,0.0,1504.0,1,0.0,0.0
786,786,-0.7861888934260761,-0.8,1,266.0,975.0,1.0,229.0,1,0.0,0.0
787,787,-0.9039323089266007,-0.9,1,419.0,975.0,1.0,386.0,1,0.0,0.0
788,788,-0.5557765052609762,-0.6,1,257.0,653.0,1.0,360.0,1,0.0,0.0
789,789,0.784716078955815,0.8,0,497.0,933.0,0.0,490.0,1,0.0,0.0
790,790,-0.20648280398567098,-0.2,1,416.0,958.0,1.0,386.0,1,0.0,0.0
791,791,-0.7121457606682537,-0.7,1,354.0,642.0,1.0,394.0,1,0.0,0.0
792,792,0.7990298818813668,0.8,0,276.0,840.0,0.0,294.0,1,0.0,0.0
793,793,-0.03486710649366054,-0.0,1,413.0,885.0,1.0,1692.0,1,0.0,0.0
794,794,-0.005306000292725654,-0.0,1,305.0,928.0,1.0,1887.0,1,0.0,0.0
795,795,-0.0028415296811890034,-0.0,1,449.0,612.0,1.0,1219.0,1,0.0,0.0
796,796,0.18765025133551672,0.2,0,490.0,540.0,0.0,1370.0,1,0.0,0.0
797,797,-0.9561770214292697,-1.0,1,452.0,598.0,1.0,370.0,1,0.0,0.0
798,798,-0.6489205492846302,-0.6,1,498.0,967.0,1.0,675.0,1,0.0,0.0
799,799,0.8370110945285552,0.8,0,481.0,990.0,0.0,369.0,1,0.0,0.0
800,800,0.7692721073095654,0.8,0,412.0,827.0,0.0,241.0,1,0.0,0.0
801,801,-0.6068249357677185,-0.6,1,371.0,921.0,1.0,498.0,1,0.0,0.0
802,802,0.6281991111297842,0.6,0,465.0,595.0,0.0,560.0,1,0.0,0.0
803,803,-0.5231492599547001,-0.5,1,412.0,957.0,1.0,411.0,1,0.0,0.0
804,804,-0.321650188084337,-0.3,1,456.0,803.0,1.0,511.0,1,0.0,0.0
805,805,0.3080947169319419,0.3,0,348.0,827.0,1.0,645.0,0,0.0,0.0
806,806,-0.687997388297628,-0.7,1,380.0,571.0,1.0,269.0,1,0.0,0.0
807,807,-0.5249030654370861,-0.5,1,282.0,867.0,1.0,361.0,1,0.0,0.0
808,808,0.08880854254478798,0.1,0,414.0,947.0,1.0,1449.0,0,0.0,0.0
809,809,0.8802477331120722,0.9,0,330.0,883.0,0.0,567.0,1,0.0,0.0
810,810,-0.2623553096857969,-0.3,1,496.0,553.0,1.0,421.0,1,0.0,0.0
811,811,0.905296885586508,0.9,0,349.0,868.0,0.0,233.0,1,0.0,0.0
812,812,0.21257936840031766,0.2,0,416.0,746.0,1.0,2388.0,0,0.0,0.0
813,813,-0.5050678285187378,-0.5,1,441.0,597.0,1.0,562.0,1,0.0,0.0
814,814,-0.4837584097366958,-0.5,1,493.0,796.0,1.0,641.0,1,0.0,0.0
815,815,-0.9980176583215565,-1.0,1,384.0,723.0,1.0,273.0,1,0.0,0.0
816,816,-0.3518444818480626,-0.4,1,452.0,599.0,1.0,469.0,1,0.0,0.0
817,817,-0.6556909439607945,-0.7,1,341.0,741.0,1.0,458.0,1,0.0,0.0
818,818,-0.7233712340030423,-0.7,1,432.0,791.0,1.0,337.0,1,0.0,0.0
819,819,-0.43469710549723484,-0.4,1,301.0,577.0,1.0,982.0,1,0.0,0.0
820,820,-0.49292253247914486,-0.5,1,334.0,950.0,1.0,286.0,1,0.0,0.0
821,821,-0.7545697386570536,-0.8,1,488.0,527.0,1.0,315.0,1,0.0,0.0
822,822,-0.9572839769139037,-1.0,1,309.0,692.0,1.0,539.0,1,0.0,0.0
823,823,0.847184261320862,0.8,0,398.0,781.0,0.0,491.0,1,0.0,0.0
824,824,-0.3366878326479261,-0.3,1,299.0,604.0,1.0,587.0,1,0.0,0.0
825,825,0.9925906323056011,1.0,0,445.0,683.0,0.0,212.0,1,0.0,0.0
826,826,-0.7159119138995342,-0.7,1,415.0,950.0,1.0,415.0,1,0.0,0.0
827,827,-0.08398945049873086,-0.1,1,342.0,713.0,1.0,515.0,1,0.0,0.0
828,828,0.4336099309692292,0.4,0,268.0,870.0,0.0,1142.0,1,0.0,0.0
829,829,-0.7115334430313696,-0.7,1,353.0,778.0,1.0,539.0,1,0.0,0.0
830,830,0.7127537863051154,0.7,0,355.0,619.0,0.0,506.0,1,0.0,0.0
831,831,0.7851313091589027,0.8,0,498.0,555.0,0.0,167.0,1,0.0,0.0
832,832,-0.5606124009279079,-0.6,1,290.0,924.0,1.0,506.0,1,0.0,0.0
833,833,-0.5874297741504388,-0.6,1,436.0,654.0,1.0,310.0,1,0.0,0.0
834,834,0.7336255412895909,0.7,0,435.0,505.0,0.0,330.0,1,0.0,0.0
835,835,-0.3947701917141362,-0.4,1,281.0,527.0,1.0,252.0,1,0.0,0.0
836,836,0.23689918265409982,0.2,0,296.0,640.0,0.0,364.0,1,0.0,0.0
837,837,-0.9940275086070247,-1.0,1,499.0,507.0,1.0,304.0,1,0.0,0.0
838,838,-0.21859981761970726,-0.2,1,395.0,642.0,1.0,853.0,1,0.0,0.0
839,839,-0.26159981789104414,-0.3,1,315.0,617.0,1.0,498.0,1,0.0,0.0
840,840,-0.1431574796984132,-0.1,1,298.0,582.0,1.0,730.0,1,0.0,0.0
841,841,-0.5850196268773413,-0.6,1,315.0,979.0,1.0,586.0,1,0.0,0.0
842,842,0.5368532518251519,0.5,0,315.0,890.0,0.0,555.0,1,0.0,0.0
843,843,-0.07393895751237345,-0.1,1,359.0,803.0,1.0,2918.0,1,0.0,0.0
844,844,-0.751936342898124,-0.8,1,464.0,758.0,1.0,448.0,1,0.0,0.0
845,845,0.7454777800638845,0.7,0,342.0,976.0,0.0,492.0,1,0.0,0.0
846,846,0.4138043976529979,0.4,0,450.0,951.0,0.0,769.0,1,0.0,0.0
847,847,-0.5389241556999329,-0.5,1,310.0,944.0,1.0,656.0,1,0.0,0.0
848,848,-0.17828575811048442,-0.2,1,489.0,838.0,1.0,1113.0,1,0.0,0.0
849,849,0.6671606670436425,0.7,0,263.0,511.0,0.0,216.0,1,0.0,0.0
850,850,-0.3683494964504954,-0.4,1,403.0,935.0,1.0,272.0,1,0.0,0.0
851,851,0.36405084317083447,0.4,0,489.0,985.0,0.0,506.0,1,0.0,0.0
852,852,0.8936757862037554,0.9,0,419.0,756.0,0.0,135.0,1,0.0,0.0
853,853,0.32826313303411303,0.3,0,309.0,636.0,0.0,975.0,1,0.0,0.0
854,854,0.5169449792992409,0.5,0,300.0,564.0,0.0,366.0,1,0.0,0.0
855,855,0.15201518270943026,0.2,0,284.0,956.0,1.0,440.0,0,0.0,0.0
856,856,-0.49302405022192164,-0.5,1,377.0,518.0,1.0,325.0,1,0.0,0.0
857,857,0.42747414171790754,0.4,0,458.0,975.0,0.0,657.0,1,0.0,0.0
858,858,-0.7087962633682192,-0.7,1,405.0,846.0,1.0,1719.0,1,0.0,0.0
859,859,-0.25634910643881903,-0.3,1,429.0,822.0,1.0,549.0,1,0.0,0.0
860,860,0.349460120717751,0.3,0,463.0,695.0,0.0,662.0,1,0.0,0.0
861,861,-0.7495558033546004,-0.7,1,258.0,829.0,1.0,203.0,1,0.0,0.0
862,862,-0.45904563845045776,-0.5,1,253.0,560.0,1.0,397.0,1,0.0,0.0
863,863,-0.44077766658906326,-0.4,1,257.0,537.0,1.0,576.0,1,0.0,0.0
864,864,0.15165918807972356,0.2,0,325.0,613.0,0.0,452.0,1,0.0,0.0
865,865,-0.9184780813414966,-0.9,1,254.0,503.0,1.0,323.0,1,0.0,0.0
866,866,0.843309020396698,0.8,0,302.0,684.0,0.0,274.0,1,0.0,0.0
867,867,0.659319630859835,0.7,0,488.0,840.0,0.0,272.0,1,0.0,0.0
868,868,-0.05851129852589376,-0.1,1,301.0,511.0,1.0,308.0,1,0.0,0.0
869,869,0.6435840382778328,0.6,0,364.0,640.0,0.0,516.0,1,0.0,0.0
870,870,-0.0985524666524018,-0.1,1,383.0,767.0,1.0,1050.0,1,0.0,0.0
871,871,0.7662466255642537,0.8,0,360.0,831.0,0.0,489.0,1,0.0,0.0
872,872,0.5325554733558615,0.5,0,441.0,500.0,0.0,419.0,1,0.0,0.0
873,873,0.13275553246756533,0.1,0,334.0,577.0,0.0,1299.0,1,0.0,0.0
874,874,-0.5446129526935954,-0.5,1,292.0,719.0,1.0,389.0,1,0.0,0.0
875,875,-0.7856271210949788,-0.8,1,275.0,641.0,1.0,324.0,1,0.0,0.0
876,876,0.6150285029445761,0.6,0,276.0,819.0,0.0,395.0,1,0.0,0.0
877,877,0.36403700515485515,0.4,0,273.0,666.0,0.0,431.0,1,0.0,0.0
878,878,-0.545591550799436,-0.5,1,351.0,949.0,1.0,1590.0,1,0.0,0.0
879,879,-0.3824897096747757,-0.4,1,404.0,628.0,1.0,578.0,1,0.0,0.0
880,880,0.033572162507208736,0.0,0,338.0,681.0,1.0,1261.0,0,0.0,0.0
881,881,0.2728758621449008,0.3,0,461.0,543.0,0.0,386.0,1,0.0,0.0
882,882,-0.38084921111751635,-0.4,1,316.0,523.0,1.0,401.0,1,0.0,0.0
883,883,0.2975449553417313,0.3,0,348.0,864.0,0.0,818.0,1,0.0,0.0
884,884,0.6606833137076811,0.7,0,285.0,984.0,0.0,471.0,1,0.0,0.0
885,885,0.9621378843810529,1.0,0,424.0,807.0,0.0,259.0,1,0.0,0.0
886,886,-0.4738927056100857,-0.5,1,299.0,602.0,1.0,199.0,1,0.0,0.0
887,887,0.8895002056800225,0.9,0,333.0,790.0,0.0,347.0,1,0.0,0.0
888,888,0.6638242830838099,0.7,0,339.0,583.0,0.0,448.0,1,0.0,0.0
889,889,0.12066621326842575,0.1,0,449.0,685.0,0.0,706.0,1,0.0,0.0
890,890,-0.11803645812282659,-0.1,1,427.0,891.0,1.0,1102.0,1,0.0,0.0
891,891,-0.5595656133434663,-0.6,1,383.0,647.0,1.0,240.0,1,0.0,0.0
892,892,0.9978636593733257,1.0,0,432.0,579.0,0.0,289.0,1,0.0,0.0
893,893,-0.7245052572293591,-0.7,1,285.0,502.0,1.0,333.0,1,0.0,0.0
894,894,0.09679810013831425,0.1,0,425.0,600.0,1.0,2945.0,0,0.0,0.0
895,895,-0.4728414554435538,-0.5,1,426.0,948.0,1.0,1026.0,1,0.0,0.0
896,896,0.9197445758861527,0.9,0,371.0,870.0,0.0,319.0,1,0.0,0.0
897,897,-0.8412528512977877,-0.8,1,468.0,958.0,1.0,224.0,1,0.0,0.0
898,898,-0.2399458005157824,-0.2,1,453.0,855.0,1.0,262.0,1,0.0,0.0
899,899,-0.32607434398103985,-0.3,1,455.0,658.0,1.0,557.0,1,0.0,0.0
900,900,-0.1011390557812597,-0.1,1,251.0,699.0,1.0,320.0,1,0.0,0.0
901,901,-0.9593810018495468,-1.0,1,350.0,806.0,1.0,594.0,1,0.0,0.0
902,902,-0.3565780266522851,-0.4,1,308.0,645.0,1.0,487.0,1,0.0,0.0
903,903,-0.38548367447456355,-0.4,1,352.0,536.0,1.0,332.0,1,0.0,0.0
904,904,-0.9777016020895108,-1.0,1,389.0,612.0,1.0,329.0,1,0.0,0.0
905,905,-0.9715521436423535,-1.0,1,444.0,680.0,1.0,176.0,1,0.0,0.0
906,906,-0.3349202025072642,-0.3,1,311.0,814.0,1.0,445.0,1,0.0,0.0
907,907,0.16307818410216468,0.2,0,309.0,562.0,0.0,1269.0,1,0.0,0.0
908,908,0.7737268259813199,0.8,0,310.0,876.0,0.0,194.0,1,0.0,0.0
909,909,-0.8127582783231053,-0.8,1,344.0,887.0,1.0,369.0,1,0.0,0.0
910,910,-0.4365200466485939,-0.4,1,463.0,813.0,1.0,394.0,1,0.0,0.0
911,911,-0.41534427180427347,-0.4,1,338.0,763.0,1.0,489.0,1,0.0,0.0
912,912,-0.9900810520543808,-1.0,1,295.0,756.0,1.0,279.0,1,0.0,0.0
913,913,-0.2621198891212204,-0.3,1,408.0,970.0,1.0,462.0,1,0.0,0.0
914,914,0.12274854040300132,0.1,0,272.0,626.0,0.0,4102.0,1,0.0,0.0
915,915,-0.06310689331755981,-0.1,1,337.0,723.0,1.0,610.0,1,0.0,0.0
916,916,0.3943371166607157,0.4,0,362.0,945.0,0.0,1043.0,1,0.0,0.0
917,917,-0.2848228277571734,-0.3,1,302.0,510.0,1.0,338.0,1,0.0,0.0
918,918,-0.6379760141883231,-0.6,1,354.0,610.0,1.0,596.0,1,0.0,0.0
919,919,-0.15669107590151077,-0.2,1,438.0,870.0,1.0,422.0,1,0.0,0.0
920,920,-0.31807065227846376,-0.3,1,430.0,549.0,1.0,411.0,1,0.0,0.0
921,921,0.9114530276409851,0.9,0,404.0,997.0,0.0,309.0,1,0.0,0.0
922,922,0.6013592315555427,0.6,0,355.0,578.0,0.0,597.0,1,0.0,0.0
923,923,-0.9336968910666006,-0.9,1,447.0,913.0,1.0,300.0,1,0.0,0.0
924,924,0.8686387715571418,0.9,0,302.0,576.0,0.0,332.0,1,0.0,0.0
925,925,0.09872697293277888,0.1,0,442.0,875.0,0.0,923.0,1,0.0,0.0
926,926,0.7026571114361211,0.7,0,491.0,626.0,0.0,243.0,1,0.0,0.0
927,927,0.6733313772564202,0.7,0,451.0,633.0,0.0,426.0,1,0.0,0.0
928,928,0.09150207072111716,0.1,0,439.0,995.0,1.0,836.0,0,0.0,0.0
929,929,0.4032770021218359,0.4,0,401.0,527.0,0.0,462.0,1,0.0,0.0
930,930,0.8502082564354894,0.9,0,258.0,721.0,0.0,541.0,1,0.0,0.0
931,931,-0.15674476534295567,-0.2,1,309.0,981.0,1.0,980.0,1,0.0,0.0
932,932,-0.6824100423306876,-0.7,1,251.0,525.0,1.0,354.0,1,0.0,0.0
933,933,-0.9640761853605349,-1.0,1,321.0,730.0,1.0,329.0,1,0.0,0.0
934,934,0.5293589289828833,0.5,0,407.0,566.0,0.0,427.0,1,0.0,0.0
935,935,-0.7647624484160394,-0.8,1,361.0,672.0,1.0,447.0,1,0.0,0.0
936,936,-0.3558745345159038,-0.4,1,459.0,504.0,1.0,477.0,1,0.0,0.0
937,937,-0.799254186462921,-0.8,1,317.0,915.0,1.0,618.0,1,0.0,0.0
938,938,-0.3889123053931538,-0.4,1,493.0,587.0,1.0,270.0,1,0.0,0.0
939,939,0.5291477589236102,0.5,0,472.0,803.0,0.0,335.0,1,0.0,0.0
940,940,-0.48019412725699895,-0.5,1,327.0,883.0,1.0,220.0,1,0.0,0.0
941,941,0.6195464712130441,0.6,0,361.0,580.0,0.0,329.0,1,0.0,0.0
942,942,0.09474535149453867,0.1,0,316.0,901.0,0.0,493.0,1,0.0,0.0
943,943,0.14422321069310495,0.1,0,377.0,913.0,0.0,680.0,1,0.0,0.0
944,944,0.4747416973879055,0.5,0,386.0,908.0,0.0,696.0,1,0.0,0.0
945,945,-0.3902057839737214,-0.4,1,423.0,849.0,1.0,638.0,1,0.0,0.0
946,946,-0.20835926614703326,-0.2,1,464.0,804.0,1.0,1462.0,1,0.0,0.0
947,947,0.8353348821177318,0.8,0,299.0,959.0,0.0,612.0,1,0.0,0.0
948,948,-0.2966592539983295,-0.3,1,428.0,624.0,1.0,518.0,1,0.0,0.0
949,949,0.019728681748562904,0.0,0,489.0,781.0,1.0,1420.0,0,0.0,0.0
950,950,-0.814059843040011,-0.8,1,369.0,819.0,1.0,232.0,1,0.0,0.0
951,951,0.20713447930073925,0.2,0,469.0,747.0,0.0,2144.0,1,0.0,0.0
952,952,-0.09291971445728398,-0.1,1,458.0,725.0,1.0,647.0,1,0.0,0.0
953,953,0.0838013527406749,0.1,0,295.0,938.0,1.0,1057.0,0,0.0,0.0
954,954,-0.6702977742406218,-0.7,1,358.0,564.0,1.0,738.0,1,0.0,0.0
955,955,-0.29960837451798294,-0.3,1,372.0,846.0,1.0,832.0,1,0.0,0.0
956,956,0.323467475146342,0.3,0,387.0,774.0,0.0,319.0,1,0.0,0.0
957,957,-0.17785214666797744,-0.2,1,437.0,679.0,1.0,694.0,1,0.0,0.0
958,958,0.6003633316403438,0.6,0,286.0,814.0,0.0,360.0,1,0.0,0.0
959,959,0.16473193319786805,0.2,0,447.0,897.0,0.0,3656.0,1,0.0,0.0
960,960,-0.09932494625002919,-0.1,1,275.0,832.0,1.0,833.0,1,0.0,0.0
961,961,0.4896041645288345,0.5,0,267.0,750.0,0.0,383.0,1,0.0,0.0
962,962,0.7814166051143827,0.8,0,436.0,580.0,0.0,214.0,1,0.0,0.0
963,963,0.08987906597892503,0.1,0,326.0,662.0,0.0,1942.0,1,0.0,0.0
964,964,0.32624196410622885,0.3,0,287.0,591.0,0.0,1052.0,1,0.0,0.0
965,965,-0.552365050306898,-0.6,1,321.0,821.0,1.0,358.0,1,0.0,0.0
966,966,-0.7806109004761792,-0.8,1,427.0,852.0,1.0,331.0,1,0.0,0.0
967,967,0.913222481114466,0.9,0,331.0,633.0,0.0,336.0,1,0.0,0.0
968,968,-0.10650786009480373,-0.1,1,408.0,605.0,1.0,257.0,1,0.0,0.0
969,969,-0.14671463923775163,-0.1,1,465.0,747.0,1.0,858.0,1,0.0,0.0
970,970,-0.6520412854825823,-0.7,1,401.0,758.0,1.0,351.0,1,0.0,0.0
971,971,0.6919699605611784,0.7,0,288.0,753.0,0.0,419.0,1,0.0,0.0
972,972,0.9004392483717298,0.9,0,414.0,795.0,0.0,431.0,1,0.0,0.0
973,973,0.522530531436054,0.5,0,456.0,926.0,0.0,638.0,1,0.0,0.0
974,974,-0.8785352379660214,-0.9,1,489.0,501.0,1.0,360.0,1,0.0,0.0
975,975,0.689713933693479,0.7,0,408.0,885.0,0.0,867.0,1,0.0,0.0
976,976,0.18267554203802305,0.2,0,376.0,540.0,0.0,1274.0,1,0.0,0.0
977,977,0.20778968395877628,0.2,0,464.0,820.0,0.0,496.0,1,0.0,0.0
978,978,0.12435278962877638,0.1,0,369.0,566.0,0.0,1055.0,1,0.0,0.0
979,979,0.6000729782991521,0.6,0,337.0,661.0,0.0,532.0,1,0.0,0.0
980,980,-0.6943252656309669,-0.7,1,338.0,691.0,1.0,391.0,1,0.0,0.0
981,981,-0.9480149054214859,-0.9,1,281.0,845.0,1.0,604.0,1,0.0,0.0
982,982,-0.914865243698626,-0.9,1,301.0,865.0,1.0,394.0,1,0.0,0.0
983,983,-0.3667040887153572,-0.4,1,493.0,729.0,1.0,458.0,1,0.0,0.0
984,984,0.7233565615131721,0.7,0,467.0,666.0,0.0,197.0,1,0.0,0.0
985,985,-0.814202072720412,-0.8,1,293.0,962.0,1.0,515.0,1,0.0,0.0
986,986,-0.10943537346265142,-0.1,1,483.0,765.0,1.0,382.0,1,0.0,0.0
987,987,0.4431152606360129,0.4,0,298.0,889.0,0.0,783.0,1,0.0,0.0
988,988,-0.718477470461748,-0.7,1,252.0,525.0,1.0,233.0,1,0.0,0.0
989,989,-0.3282135552094647,-0.3,1,424.0,780.0,1.0,246.0,1,0.0,0.0
990,990,0.7169803285237439,0.7,0,286.0,668.0,0.0,316.0,1,0.0,0.0
991,991,0.05739451459166833,0.1,0,337.0,701.0,1.0,1102.0,0,0.0,0.0
992,992,0.10127238157603258,0.1,0,456.0,766.0,1.0,688.0,0,0.0,0.0
993,993,-0.0470053054252253,-0.0,1,259.0,765.0,1.0,976.0,1,0.0,0.0
994,994,-0.7476040445958709,-0.7,1,453.0,546.0,1.0,321.0,1,0.0,0.0
995,995,0.8271240229492811,0.8,0,250.0,736.0,0.0,264.0,1,0.0,0.0
996,996,0.2193995605509722,0.2,0,261.0,716.0,0.0,983.0,1,0.0,0.0
997,997,-0.5087184111379026,-0.5,1,398.0,611.0,1.0,391.0,1,0.0,0.0
998,998,0.3817238037091022,0.4,0,324.0,583.0,0.0,1273.0,1,0.0,0.0
999,999,-0.2827989071816175,-0.3,1,298.0,631.0,1.0,401.0,1,0.0,0.0
1000,1000,0.3330665947414979,0.3,0,430.0,680.0,0.0,770.0,1,0.0,0.0
1001,1001,-0.4167037068635895,-0.4,1,300.0,528.0,1.0,302.0,1,0.0,0.0
1002,1002,-0.8650188288383747,-0.9,1,471.0,834.0,1.0,205.0,1,0.0,0.0
1003,1003,-0.09532021937373547,-0.1,1,485.0,600.0,1.0,1045.0,1,0.0,0.0
1004,1004,-0.7968339486293192,-0.8,1,292.0,555.0,1.0,283.0,1,0.0,0.0
1005,1005,-0.829269836276227,-0.8,1,325.0,878.0,1.0,407.0,1,0.0,0.0
1006,1006,0.2500596379205464,0.3,0,485.0,505.0,0.0,740.0,1,0.0,0.0
1007,1007,0.9451236480393612,0.9,0,378.0,754.0,0.0,188.0,1,0.0,0.0
1008,1008,0.4143754994077662,0.4,0,252.0,726.0,0.0,482.0,1,0.0,0.0
1009,1009,0.07966744424976113,0.1,0,486.0,644.0,0.0,360.0,1,0.0,0.0
1010,1010,0.8657951455339461,0.9,0,456.0,979.0,0.0,325.0,1,0.0,0.0
1011,1011,-0.7589183143871627,-0.8,1,351.0,879.0,1.0,240.0,1,0.0,0.0
1012,1012,0.6005405803814559,0.6,0,345.0,588.0,0.0,347.0,1,0.0,0.0
1013,1013,0.23525996026915652,0.2,0,382.0,744.0,0.0,1354.0,1,0.0,0.0
1014,1014,-0.9212573260055146,-0.9,1,347.0,618.0,1.0,315.0,1,0.0,0.0
1015,1015,0.3718775659371354,0.4,0,382.0,604.0,0.0,964.0,1,0.0,0.0
1016,1016,-0.9335172657775517,-0.9,1,424.0,621.0,1.0,285.0,1,0.0,0.0
1017,1017,-0.2753369082328052,-0.3,1,362.0,800.0,1.0,318.0,1,0.0,0.0
1018,1018,0.13221379585904947,0.1,0,468.0,864.0,1.0,728.0,0,0.0,0.0
1019,1019,0.3645890377531691,0.4,0,430.0,636.0,0.0,694.0,1,0.0,0.0
1020,1020,-0.9329834007393831,-0.9,1,381.0,595.0,1.0,484.0,1,0.0,0.0
1021,1021,0.5108685697781465,0.5,0,350.0,620.0,0.0,350.0,1,0.0,0.0
1022,1022,-0.1787123908612147,-0.2,1,273.0,938.0,1.0,1819.0,1,0.0,0.0
1023,1023,0.6826939674178143,0.7,0,294.0,871.0,0.0,495.0,1,0.0,0.0
1024,1024,0.6328978362098425,0.6,0,469.0,654.0,0.0,797.0,1,0.0,0.0
1025,1025,0.19072150006199484,0.2,0,408.0,846.0,0.0,906.0,1,0.0,0.0
1026,1026,-0.32278590953675,-0.3,1,418.0,540.0,1.0,602.0,1,0.0,0.0
1027,1027,0.9463006537473135,0.9,0,387.0,561.0,0.0,422.0,1,0.0,0.0
1028,1028,0.38511852201067676,0.4,0,343.0,619.0,0.0,708.0,1,0.0,0.0
1029,1029,-0.818804525271555,-0.8,1,260.0,565.0,1.0,205.0,1,0.0,0.0
1030,1030,0.8684667340770729,0.9,0,457.0,831.0,0.0,722.0,1,0.0,0.0
1031,1031,0.7451283327079252,0.7,0,493.0,946.0,0.0,331.0,1,0.0,0.0
1032,1032,0.799774497502808,0.8,0,315.0,865.0,0.0,230.0,1,0.0,0.0
1033,1033,-0.6505234536918116,-0.7,1,449.0,900.0,1.0,271.0,1,0.0,0.0
1034,1034,-0.17128791021033396,-0.2,1,445.0,660.0,1.0,1255.0,1,0.0,0.0
1035,1035,0.3737492348096616,0.4,0,323.0,878.0,0.0,889.0,1,0.0,0.0
1036,1036,0.09647162746476146,0.1,0,253.0,760.0,1.0,917.0,0,0.0,0.0
1037,1037,0.23681862280034882,0.2,0,310.0,792.0,0.0,608.0,1,0.0,0.0
1038,1038,-0.5554223055047507,-0.6,1,340.0,703.0,1.0,197.0,1,0.0,0.0
1039,1039,-0.42443753978678345,-0.4,1,315.0,527.0,1.0,488.0,1,0.0,0.0
1040,1040,-0.2428418744259926,-0.2,1,286.0,990.0,1.0,254.0,1,0.0,0.0
1041,1041,0.1582336246654834,0.2,0,488.0,843.0,0.0,509.0,1,0.0,0.0
1042,1042,0.024584751972357877,0.0,0,308.0,592.0,1.0,3160.0,0,0.0,0.0
1043,1043,0.5703196858883748,0.6,0,289.0,974.0,0.0,497.0,1,0.0,0.0
1044,1044,-0.7842768032695289,-0.8,1,410.0,560.0,1.0,340.0,1,0.0,0.0
1045,1045,-0.9825287111803978,-1.0,1,256.0,705.0,1.0,279.0,1,0.0,0.0
1046,1046,-0.7804151566886357,-0.8,1,471.0,926.0,1.0,363.0,1,0.0,0.0
1047,1047,0.785224444872852,0.8,0,340.0,884.0,0.0,266.0,1,0.0,0.0
1048,1048,-0.5329808836586556,-0.5,1,381.0,956.0,1.0,643.0,1,0.0,0.0
1049,1049,-0.5406242319731185,-0.5,1,479.0,574.0,1.0,317.0,1,0.0,0.0
1050,1050,0.5764172068299849,0.6,0,400.0,902.0,0.0,848.0,1,0.0,0.0
1051,1051,0.33881478287663747,0.3,0,390.0,747.0,0.0,373.0,1,0.0,0.0
1052,1052,-0.9598831844381042,-1.0,1,406.0,933.0,1.0,531.0,1,0.0,0.0
1053,1053,0.8163452539457474,0.8,0,425.0,647.0,0.0,388.0,1,0.0,0.0
1054,1054,-0.07548724509740734,-0.1,1,281.0,796.0,1.0,1063.0,1,0.0,0.0
1055,1055,-0.8412645802239982,-0.8,1,316.0,951.0,1.0,323.0,1,0.0,0.0
1056,1056,-0.15767470645342496,-0.2,1,321.0,501.0,1.0,648.0,1,0.0,0.0
1057,1057,0.4165840633320961,0.4,0,372.0,684.0,0.0,754.0,1,0.0,0.0
1058,1058,0.07601369644480149,0.1,0,380.0,784.0,1.0,556.0,0,0.0,0.0
1059,1059,0.25062442399837237,0.3,0,315.0,643.0,0.0,422.0,1,0.0,0.0
1060,1060,0.44506530069563377,0.4,0,414.0,749.0,0.0,267.0,1,0.0,0.0
1061,1061,-0.38819501692730984,-0.4,1,324.0,716.0,1.0,540.0,1,0.0,0.0
1062,1062,-0.16055570527485385,-0.2,1,466.0,995.0,1.0,599.0,1,0.0,0.0
1063,1063,0.8986201302966403,0.9,0,396.0,985.0,0.0,329.0,1,0.0,0.0
1064,1064,-0.11411621859669618,-0.1,1,342.0,511.0,1.0,847.0,1,0.0,0.0
1065,1065,0.9243492930461419,0.9,0,270.0,874.0,0.0,426.0,1,0.0,0.0
1066,1066,0.7554642952920338,0.8,0,266.0,594.0,0.0,510.0,1,0.0,0.0
1067,1067,0.08277370892038616,0.1,0,487.0,617.0,1.0,866.0,0,0.0,0.0
1068,1068,-0.7578984365598318,-0.8,1,491.0,800.0,1.0,239.0,1,0.0,0.0
1069,1069,-0.3587914530026737,-0.4,1,286.0,788.0,1.0,386.0,1,0.0,0.0
1070,1070,0.6892244213907917,0.7,0,431.0,815.0,0.0,254.0,1,0.0,0.0
1071,1071,-0.7600948210130498,-0.8,1,294.0,867.0,1.0,559.0,1,0.0,0.0
1072,1072,0.4823315374238124,0.5,0,349.0,884.0,0.0,437.0,1,0.0,0.0
1073,1073,-0.6234171456322173,-0.6,1,273.0,589.0,1.0,668.0,1,0.0,0.0
1074,1074,0.7264267698703475,0.7,0,465.0,873.0,0.0,272.0,1,0.0,0.0
1075,1075,0.46299584683641526,0.5,0,385.0,925.0,0.0,420.0,1,0.0,0.0
1076,1076,-0.1123250127222788,-0.1,1,282.0,717.0,1.0,431.0,1,0.0,0.0
1077,1077,0.47240932885587017,0.5,0,391.0,976.0,0.0,423.0,1,0.0,0.0
1078,1078,0.8615563566239428,0.9,0,316.0,548.0,0.0,656.0,1,0.0,0.0
1079,1079,-0.018165686217705757,-0.0,1,432.0,637.0,0.0,621.0,0,0.0,0.0
1080,1080,-0.20082133007532565,-0.2,1,370.0,817.0,1.0,853.0,1,0.0,0.0
1081,1081,0.9204578344897163,0.9,0,321.0,510.0,0.0,309.0,1,0.0,0.0
1082,1082,0.6769256569851745,0.7,0,475.0,542.0,0.0,413.0,1,0.0,0.0
1083,1083,0.07726654104892372,0.1,0,492.0,827.0,1.0,881.0,0,0.0,0.0
1084,1084,0.8853408096858635,0.9,0,284.0,932.0,0.0,654.0,1,0.0,0.0
1085,1085,0.7003618313116746,0.7,0,335.0,706.0,0.0,509.0,1,0.0,0.0
1086,1086,-0.16309589596279572,-0.2,1,467.0,828.0,1.0,615.0,1,0.0,0.0
1087,1087,-0.2917896851072783,-0.3,1,435.0,560.0,1.0,445.0,1,0.0,0.0
1088,1088,0.3789684293118254,0.4,0,386.0,836.0,0.0,618.0,1,0.0,0.0
1089,1089,-0.4675804912555588,-0.5,1,346.0,847.0,1.0,477.0,1,0.0,0.0
1090,1090,0.5786454637700131,0.6,0,447.0,867.0,0.0,356.0,1,0.0,0.0
1091,1091,-0.06849087900952111,-0.1,1,290.0,533.0,1.0,1067.0,1,0.0,0.0
1092,1092,0.6158898897703133,0.6,0,280.0,582.0,0.0,418.0,1,0.0,0.0
1093,1093,0.5012609038707136,0.5,0,479.0,584.0,0.0,427.0,1,0.0,0.0
1094,1094,0.38309916426995394,0.4,0,418.0,558.0,0.0,564.0,1,0.0,0.0
1095,1095,-0.21711422888008314,-0.2,1,345.0,862.0,1.0,343.0,1,0.0,0.0
1096,1096,0.8094264067953219,0.8,0,383.0,714.0,0.0,393.0,1,0.0,0.0
1097,1097,0.24215249380114168,0.2,0,334.0,809.0,0.0,2117.0,1,0.0,0.0
1098,1098,-0.844452323179611,-0.8,1,342.0,544.0,1.0,434.0,1,0.0,0.0
1099,1099,-0.9980574557402722,-1.0,1,378.0,623.0,1.0,179.0,1,0.0,0.0
1100,1100,-0.2264773013108854,-0.2,1,260.0,616.0,1.0,464.0,1,0.0,0.0
1101,1101,-0.6060965695402365,-0.6,1,409.0,760.0,1.0,251.0,1,0.0,0.0
1102,1102,-0.10609785977637864,-0.1,1,457.0,932.0,1.0,261.0,1,0.0,0.0
1103,1103,-0.045896481182770454,-0.0,1,334.0,510.0,1.0,1126.0,1,0.0,0.0
1104,1104,-0.7137608271003362,-0.7,1,346.0,739.0,1.0,805.0,1,0.0,0.0
1105,1105,-0.7379959684252322,-0.7,1,409.0,750.0,1.0,321.0,1,0.0,0.0
1106,1106,0.275976142855449,0.3,0,432.0,937.0,0.0,1161.0,1,0.0,0.0
1107,1107,-0.49761724624492176,-0.5,1,259.0,796.0,1.0,545.0,1,0.0,0.0
1108,1108,0.5089433860868184,0.5,0,311.0,518.0,0.0,331.0,1,0.0,0.0
1109,1109,-0.5260868568818982,-0.5,1,325.0,846.0,1.0,459.0,1,0.0,0.0
1110,1110,-0.649078220528003,-0.6,1,270.0,565.0,1.0,1015.0,1,0.0,0.0
1111,1111,0.8168855300177995,0.8,0,271.0,607.0,0.0,352.0,1,0.0,0.0
1112,1112,0.23118721968283018,0.2,0,258.0,956.0,0.0,2856.0,1,0.0,0.0
1113,1113,-0.7950994149361383,-0.8,1,364.0,895.0,1.0,1101.0,1,0.0,0.0
1114,1114,-0.8080919141771705,-0.8,1,270.0,939.0,1.0,401.0,1,0.0,0.0
1115,1115,-0.13034575001566773,-0.1,1,347.0,898.0,1.0,1585.0,1,0.0,0.0
1116,1116,0.48700862750017193,0.5,0,419.0,854.0,0.0,307.0,1,0.0,0.0
1117,1117,0.7925069557929718,0.8,0,284.0,562.0,0.0,634.0,1,0.0,0.0
1118,1118,0.3913941308225437,0.4,0,420.0,640.0,0.0,720.0,1,0.0,0.0
1119,1119,-0.6931041331374792,-0.7,1,491.0,787.0,1.0,322.0,1,0.0,0.0
1120,1120,0.5434637892600347,0.5,0,428.0,726.0,0.0,506.0,1,0.0,0.0
1121,1121,-0.2504932142371121,-0.3,1,320.0,625.0,1.0,1065.0,1,0.0,0.0
1122,1122,-0.029181760708047122,-0.0,1,482.0,681.0,1.0,1187.0,1,0.0,0.0
1123,1123,-0.48508401776412047,-0.5,1,481.0,742.0,1.0,367.0,1,0.0,0.0
1124,1124,0.3555331055771702,0.4,0,260.0,847.0,0.0,1563.0,1,0.0,0.0
1125,1125,-0.7873917594176301,-0.8,1,342.0,804.0,1.0,424.0,1,0.0,0.0
1126,1126,-0.9581172705115899,-1.0,1,351.0,910.0,1.0,229.0,1,0.0,0.0
1127,1127,0.4851074215886164,0.5,0,472.0,886.0,0.0,642.0,1,0.0,0.0
1128,1128,0.7179386700065131,0.7,0,336.0,863.0,0.0,311.0,1,0.0,0.0
1129,1129,-0.7338062626300645,-0.7,1,485.0,993.0,1.0,402.0,1,0.0,0.0
1130,1130,0.9440489460105488,0.9,0,477.0,728.0,0.0,135.0,1,0.0,0.0
1131,1131,-0.06404091446067994,-0.1,1,376.0,521.0,1.0,843.0,1,0.0,0.0
1132,1132,-0.967063283454213,-1.0,1,358.0,798.0,1.0,2774.0,1,0.0,0.0
1133,1133,-0.6467511820732321,-0.6,1,392.0,896.0,1.0,572.0,1,0.0,0.0
1134,1134,-0.9564818378437165,-1.0,1,440.0,909.0,1.0,361.0,1,0.0,0.0
1135,1135,0.38936722077304786,0.4,0,338.0,894.0,0.0,598.0,1,0.0,0.0
1136,1136,-0.7898283368627592,-0.8,1,351.0,761.0,1.0,268.0,1,0.0,0.0
1137,1137,-0.5056193424276014,-0.5,1,378.0,906.0,1.0,326.0,1,0.0,0.0
1138,1138,-0.6148396689353206,-0.6,1,406.0,828.0,1.0,236.0,1,0.0,0.0
1139,1139,-0.4605601465751963,-0.5,1,422.0,750.0,1.0,518.0,1,0.0,0.0
1140,1140,0.5602405621956918,0.6,0,469.0,822.0,0.0,259.0,1,0.0,0.0
1141,1141,-0.585634761547621,-0.6,1,313.0,833.0,1.0,534.0,1,0.0,0.0
1142,1142,-0.8400640530504568,-0.8,1,329.0,750.0,1.0,191.0,1,0.0,0.0
1143,1143,0.864520250227018,0.9,0,369.0,727.0,0.0,234.0,1,0.0,0.0
1144,1144,-0.11097093634241828,-0.1,1,414.0,897.0,1.0,1629.0,1,0.0,0.0
1145,1145,0.7897327118032662,0.8,0,455.0,927.0,0.0,708.0,1,0.0,0.0
1146,1146,0.4975763897075489,0.5,0,384.0,978.0,0.0,398.0,1,0.0,0.0
1147,1147,-0.41607981905198077,-0.4,1,458.0,606.0,1.0,316.0,1,0.0,0.0
1148,1148,-0.380872692791679,-0.4,1,337.0,673.0,1.0,420.0,1,0.0,0.0
1149,1149,-0.6169493901636944,-0.6,1,395.0,798.0,1.0,497.0,1,0.0,0.0
1150,1150,-0.35860251277815025,-0.4,1,275.0,974.0,1.0,311.0,1,0.0,0.0
1151,1151,-0.6253908843995997,-0.6,1,446.0,546.0,1.0,268.0,1,0.0,0.0
1152,1152,-0.6536044287785174,-0.7,1,473.0,688.0,1.0,409.0,1,0.0,0.0
1153,1153,0.5709154768418794,0.6,0,399.0,558.0,0.0,523.0,1,0.0,0.0
1154,1154,-0.009018436025242105,-0.0,1,459.0,618.0,1.0,493.0,1,0.0,0.0
1155,1155,-0.709776028378839,-0.7,1,479.0,515.0,1.0,356.0,1,0.0,0.0
1156,1156,0.8538142071106616,0.9,0,458.0,770.0,0.0,422.0,1,0.0,0.0
1157,1157,-0.41507099024219407,-0.4,1,396.0,507.0,1.0,397.0,1,0.0,0.0
1158,1158,0.37128472784695044,0.4,0,312.0,946.0,0.0,622.0,1,0.0,0.0
1159,1159,0.6971041730738652,0.7,0,322.0,771.0,0.0,347.0,1,0.0,0.0
1160,1160,-0.38848640529535117,-0.4,1,477.0,958.0,1.0,415.0,1,0.0,0.0
1161,1161,0.3769015456735356,0.4,0,339.0,979.0,0.0,682.0,1,0.0,0.0
1162,1162,0.29797341105872976,0.3,0,344.0,566.0,0.0,420.0,1,0.0,0.0
1163,1163,-0.6747947484994037,-0.7,1,269.0,673.0,1.0,358.0,1,0.0,0.0
1164,1164,0.5610081803523514,0.6,0,451.0,585.0,0.0,664.0,1,0.0,0.0
1165,1165,0.8480987787467869,0.8,0,323.0,701.0,0.0,326.0,1,0.0,0.0
1166,1166,-0.9633964137407454,-1.0,1,451.0,545.0,1.0,234.0,1,0.0,0.0
1167,1167,0.69834656530374,0.7,0,364.0,568.0,0.0,508.0,1,0.0,0.0
1168,1168,0.7522032361590381,0.8,0,351.0,628.0,0.0,511.0,1,0.0,0.0
1169,1169,-0.22669049152379128,-0.2,1,341.0,973.0,1.0,486.0,1,0.0,0.0
1170,1170,0.6577099095496324,0.7,0,314.0,956.0,0.0,320.0,1,0.0,0.0
1171,1171,-0.9411881815929872,-0.9,1,288.0,815.0,1.0,387.0,1,0.0,0.0
1172,1172,-0.5525779845369905,-0.6,1,278.0,925.0,1.0,297.0,1,0.0,0.0
1173,1173,0.9965554805716199,1.0,0,462.0,510.0,0.0,178.0,1,0.0,0.0
1174,1174,0.9087632568610216,0.9,0,262.0,949.0,0.0,309.0,1,0.0,0.0
1175,1175,0.5717822874115304,0.6,0,290.0,623.0,0.0,637.0,1,0.0,0.0
1176,1176,-0.5803877075385298,-0.6,1,296.0,972.0,1.0,202.0,1,0.0,0.0
1177,1177,0.5277468075348002,0.5,0,437.0,549.0,0.0,304.0,1,0.0,0.0
1178,1178,-0.02014725704740572,-0.0,1,299.0,951.0,1.0,1210.0,1,0.0,0.0
1179,1179,0.5679579358379854,0.6,0,424.0,790.0,0.0,636.0,1,0.0,0.0
1180,1180,-0.7201064124825329,-0.7,1,333.0,683.0,1.0,454.0,1,0.0,0.0
1181,1181,0.30581597730656496,0.3,0,280.0,604.0,0.0,836.0,1,0.0,0.0
1182,1182,0.9644316609011983,1.0,0,351.0,976.0,0.0,363.0,1,0.0,0.0
1183,1183,0.4853643824828222,0.5,0,343.0,599.0,0.0,958.0,1,0.0,0.0
1184,1184,-0.24486036874517403,-0.2,1,488.0,750.0,1.0,1052.0,1,0.0,0.0
1185,1185,-0.8191451632524738,-0.8,1,475.0,966.0,1.0,629.0,1,0.0,0.0
1186,1186,0.9464538385976129,0.9,0,398.0,992.0,0.0,180.0,1,0.0,0.0
1187,1187,-0.3334291090659778,-0.3,1,275.0,538.0,1.0,557.0,1,0.0,0.0
1188,1188,0.3238606579448351,0.3,0,365.0,989.0,0.0,886.0,1,0.0,0.0
1189,1189,-0.749040482025092,-0.7,1,459.0,738.0,1.0,403.0,1,0.0,0.0
1190,1190,-0.8597948442811558,-0.9,1,302.0,633.0,1.0,305.0,1,0.0,0.0
1191,1191,-0.7956012069516263,-0.8,1,297.0,607.0,1.0,386.0,1,0.0,0.0
1192,1192,-0.5818609184157075,-0.6,1,499.0,866.0,1.0,675.0,1,0.0,0.0
1193,1193,-0.26423087275667534,-0.3,1,443.0,998.0,1.0,329.0,1,0.0,0.0
1194,1194,0.20649978787524859,0.2,0,355.0,671.0,1.0,1214.0,0,0.0,0.0
1195,1195,-0.23849009462815052,-0.2,1,405.0,838.0,1.0,397.0,1,0.0,0.0
1196,1196,0.1451473254763711,0.1,0,468.0,622.0,1.0,1290.0,0,0.0,0.0
1197,1197,-0.8832177807669876,-0.9,1,407.0,717.0,1.0,216.0,1,0.0,0.0
1198,1198,-0.6974095558471698,-0.7,1,324.0,947.0,1.0,519.0,1,0.0,0.0
1199,1199,0.8735038653617373,0.9,0,255.0,860.0,0.0,345.0,1,0.0,0.0
1200,1200,-0.7396173263869996,-0.7,1,271.0,888.0,1.0,351.0,1,0.0,0.0
1201,1201,-0.41748262374557066,-0.4,1,253.0,563.0,1.0,474.0,1,0.0,0.0
1202,1202,0.918424374015804,0.9,0,297.0,551.0,0.0,362.0,1,0.0,0.0
1203,1203,-0.8445739314812799,-0.8,1,290.0,933.0,1.0,247.0,1,0.0,0.0
1204,1204,0.4249711403985177,0.4,0,350.0,731.0,0.0,599.0,1,0.0,0.0
1205,1205,0.4816890783096268,0.5,0,431.0,911.0,0.0,288.0,1,0.0,0.0
1206,1206,0.39518183055670875,0.4,0,320.0,515.0,0.0,295.0,1,0.0,0.0
1207,1207,-0.25151875708849136,-0.3,1,319.0,518.0,1.0,503.0,1,0.0,0.0
1208,1208,0.5381378328109059,0.5,0,344.0,905.0,0.0,311.0,1,0.0,0.0
1209,1209,0.572544372675097,0.6,0,466.0,649.0,0.0,275.0,1,0.0,0.0
1210,1210,-0.6448485707303016,-0.6,1,420.0,704.0,1.0,466.0,1,0.0,0.0
1211,1211,-0.9698082605700422,-1.0,1,291.0,555.0,1.0,234.0,1,0.0,0.0
1212,1212,0.9226879377100441,0.9,0,289.0,680.0,0.0,441.0,1,0.0,0.0
1213,1213,-0.9780026708022995,-1.0,1,465.0,795.0,1.0,180.0,1,0.0,0.0
1214,1214,-0.4154893399127415,-0.4,1,378.0,974.0,1.0,578.0,1,0.0,0.0
1215,1215,-0.22221309595929428,-0.2,1,258.0,927.0,1.0,515.0,1,0.0,0.0
1216,1216,0.1937321899634521,0.2,0,353.0,580.0,0.0,457.0,1,0.0,0.0
1217,1217,0.07584779944599229,0.1,0,452.0,814.0,1.0,1204.0,0,0.0,0.0
1218,1218,-0.49010947123630033,-0.5,1,312.0,876.0,1.0,1262.0,1,0.0,0.0
1219,1219,0.3695949006819841,0.4,0,262.0,738.0,0.0,1150.0,1,0.0,0.0
1220,1220,0.9838400143596744,1.0,0,289.0,849.0,0.0,362.0,1,0.0,0.0
1221,1221,0.9085665880844271,0.9,0,263.0,684.0,0.0,343.0,1,0.0,0.0
1222,1222,0.5954673924249239,0.6,0,274.0,957.0,0.0,209.0,1,0.0,0.0
1223,1223,0.9492026060836558,0.9,0,358.0,767.0,0.0,275.0,1,0.0,0.0
1224,1224,-0.7635826234849548,-0.8,1,364.0,711.0,1.0,445.0,1,0.0,0.0
1225,1225,0.5230287777743368,0.5,0,276.0,643.0,0.0,351.0,1,0.0,0.0
1226,1226,0.0905322134432116,0.1,0,303.0,533.0,1.0,1334.0,0,0.0,0.0
1227,1227,-0.8031866703477919,-0.8,1,471.0,804.0,1.0,325.0,1,0.0,0.0
1228,1228,-0.5672209854950465,-0.6,1,467.0,672.0,1.0,401.0,1,0.0,0.0
1229,1229,0.001877887836754244,0.0,0,325.0,771.0,1.0,1074.0,0,0.0,0.0
1230,1230,-0.010096371548828031,-0.0,1,388.0,669.0,1.0,453.0,1,0.0,0.0
1231,1231,-0.8000532568524092,-0.8,1,255.0,890.0,1.0,525.0,1,0.0,0.0
1232,1232,-0.15600714095624335,-0.2,1,306.0,875.0,1.0,659.0,1,0.0,0.0
1233,1233,-0.1569030720594793,-0.2,1,291.0,666.0,1.0,783.0,1,0.0,0.0
1234,1234,0.764493011492994,0.8,0,301.0,889.0,0.0,410.0,1,0.0,0.0
1235,1235,-0.9311546648913045,-0.9,1,311.0,596.0,1.0,183.0,1,0.0,0.0
1236,1236,-0.2355406438070624,-0.2,1,362.0,824.0,1.0,1034.0,1,0.0,0.0
1237,1237,-0.9465148898760984,-0.9,1,386.0,645.0,1.0,259.0,1,0.0,0.0
1238,1238,-0.2294961602873551,-0.2,1,287.0,860.0,1.0,833.0,1,0.0,0.0
1239,1239,-0.5807003313851256,-0.6,1,422.0,975.0,1.0,343.0,1,0.0,0.0
1240,1240,0.651561331840296,0.7,0,426.0,851.0,0.0,273.0,1,0.0,0.0
1241,1241,0.2995711123103819,0.3,0,310.0,507.0,0.0,803.0,1,0.0,0.0
1242,1242,0.27211760853079436,0.3,0,380.0,786.0,0.0,764.0,1,0.0,0.0
1243,1243,-0.7154350311452669,-0.7,1,266.0,515.0,1.0,369.0,1,0.0,0.0
1244,1244,-0.5217654516109678,-0.5,1,456.0,705.0,1.0,559.0,1,0.0,0.0
1245,1245,0.17905571461303005,0.2,0,440.0,516.0,0.0,1074.0,1,0.0,0.0
1246,1246,0.0864641545060727,0.1,0,454.0,807.0,1.0,809.0,0,0.0,0.0
1247,1247,-0.39517069334701227,-0.4,1,309.0,793.0,1.0,1108.0,1,0.0,0.0
1248,1248,0.23318757671656343,0.2,0,456.0,934.0,0.0,590.0,1,0.0,0.0
1249,1249,0.3142199194445705,0.3,0,404.0,914.0,1.0,1392.0,0,0.0,0.0
1250,1250,-0.2662430398719555,-0.3,1,496.0,589.0,1.0,465.0,1,0.0,0.0
1251,1251,0.6231819095553222,0.6,0,305.0,769.0,0.0,366.0,1,0.0,0.0
1252,1252,-0.5361995737767409,-0.5,1,275.0,926.0,1.0,419.0,1,0.0,0.0
1253,1253,0.016873073499467095,0.0,0,291.0,506.0,1.0,4203.0,0,0.0,0.0
1254,1254,-0.24873498883930423,-0.2,1,348.0,944.0,1.0,508.0,1,0.0,0.0
1255,1255,-0.008542376725389822,-0.0,1,295.0,961.0,1.0,704.0,1,0.0,0.0
1256,1256,0.7254119804113937,0.7,0,424.0,660.0,0.0,416.0,1,0.0,0.0
1257,1257,-0.9765491366082666,-1.0,1,278.0,639.0,1.0,183.0,1,0.0,0.0
1258,1258,0.920199653772432,0.9,0,382.0,631.0,0.0,447.0,1,0.0,0.0
1259,1259,-0.9648321067642851,-1.0,1,496.0,763.0,1.0,281.0,1,0.0,0.0
1260,1260,0.8446617677240496,0.8,0,314.0,540.0,0.0,276.0,1,0.0,0.0
1261,1261,0.018237868331572704,0.0,0,396.0,502.0,1.0,2372.0,0,0.0,0.0
1262,1262,-0.599864814638754,-0.6,1,478.0,805.0,1.0,477.0,1,0.0,0.0
1263,1263,-0.6806279880946098,-0.7,1,349.0,544.0,1.0,1197.0,1,0.0,0.0
1264,1264,-0.3898747033813883,-0.4,1,370.0,626.0,1.0,704.0,1,0.0,0.0
1265,1265,0.6347333670350082,0.6,0,315.0,850.0,0.0,315.0,1,0.0,0.0
1266,1266,-0.8570682740364874,-0.9,1,445.0,671.0,1.0,294.0,1,0.0,0.0
1267,1267,0.743398487356125,0.7,0,408.0,560.0,0.0,302.0,1,0.0,0.0
1268,1268,0.2267560895653542,0.2,0,377.0,822.0,0.0,561.0,1,0.0,0.0
1269,1269,-0.7044209151091436,-0.7,1,493.0,741.0,1.0,506.0,1,0.0,0.0
1270,1270,0.17262748853850507,0.2,0,472.0,907.0,1.0,1001.0,0,0.0,0.0
1271,1271,-0.6367562336481583,-0.6,1,446.0,589.0,1.0,475.0,1,0.0,0.0
1272,1272,-0.25927829811133973,-0.3,1,497.0,838.0,1.0,865.0,1,0.0,0.0
1273,1273,0.37651834464285283,0.4,0,269.0,999.0,0.0,732.0,1,0.0,0.0
1274,1274,0.8185517526563841,0.8,0,396.0,603.0,0.0,561.0,1,0.0,0.0
1275,1275,0.34977770074906633,0.3,0,278.0,677.0,0.0,335.0,1,0.0,0.0
1276,1276,0.017649762521568357,0.0,0,265.0,610.0,0.0,595.0,1,0.0,0.0
1277,1277,0.5543037951600496,0.6,0,483.0,835.0,0.0,552.0,1,0.0,0.0
1278,1278,-0.36397880797918547,-0.4,1,446.0,686.0,1.0,658.0,1,0.0,0.0
1279,1279,-0.07474846983388383,-0.1,1,382.0,560.0,1.0,1058.0,1,0.0,0.0
1280,1280,-0.00828196847742868,-0.0,1,378.0,907.0,1.0,1325.0,1,0.0,0.0
1281,1281,-0.4773714592101921,-0.5,1,391.0,566.0,1.0,1003.0,1,0.0,0.0
1282,1282,0.9075850486377322,0.9,0,412.0,594.0,0.0,204.0,1,0.0,0.0
1283,1283,-0.43737302264543043,-0.4,1,322.0,701.0,1.0,567.0,1,0.0,0.0
1284,1284,0.5847813016732344,0.6,0,252.0,975.0,0.0,303.0,1,0.0,0.0
1285,1285,-0.3921480065422893,-0.4,1,252.0,981.0,1.0,1737.0,1,0.0,0.0
1286,1286,0.285892457893937,0.3,0,292.0,873.0,0.0,515.0,1,0.0,0.0
1287,1287,-0.4850345226531383,-0.5,1,404.0,838.0,1.0,328.0,1,0.0,0.0
1288,1288,-0.6314924932306951,-0.6,1,255.0,648.0,1.0,427.0,1,0.0,0.0
1289,1289,0.24763091887988486,0.2,0,410.0,585.0,0.0,565.0,1,0.0,0.0
1290,1290,0.9767663313624835,1.0,0,312.0,739.0,0.0,329.0,1,0.0,0.0
1291,1291,-0.27780618979371385,-0.3,1,440.0,609.0,1.0,551.0,1,0.0,0.0
1292,1292,-0.29164586032194895,-0.3,1,421.0,527.0,1.0,162.0,1,0.0,0.0
1293,1293,-0.45604518227142665,-0.5,1,323.0,971.0,1.0,336.0,1,0.0,0.0
1294,1294,0.6614860263011746,0.7,0,400.0,612.0,0.0,488.0,1,0.0,0.0
1295,1295,-0.9092544854325357,-0.9,1,445.0,845.0,1.0,310.0,1,0.0,0.0
1296,1296,0.2839133782194425,0.3,0,359.0,737.0,0.0,924.0,1,0.0,0.0
1297,1297,0.039140925159493634,0.0,0,318.0,846.0,1.0,1496.0,0,0.0,0.0
1298,1298,-0.7387695462097505,-0.7,1,437.0,657.0,1.0,436.0,1,0.0,0.0
1299,1299,-0.4830342794932152,-0.5,1,416.0,711.0,1.0,353.0,1,0.0,0.0
1300,1300,-0.33706304957850075,-0.3,1,466.0,738.0,1.0,486.0,1,0.0,0.0
1301,1301,-0.7389065787899225,-0.7,1,366.0,907.0,1.0,487.0,1,0.0,0.0
1302,1302,-0.068251219076217,-0.1,1,384.0,557.0,1.0,269.0,1,0.0,0.0
1303,1303,0.9987204155775777,1.0,0,386.0,629.0,0.0,305.0,1,0.0,0.0
1304,1304,0.1711106062401957,0.2,0,288.0,962.0,0.0,3750.0,1,0.0,0.0
1305,1305,0.7468715735422353,0.7,0,360.0,707.0,0.0,273.0,1,0.0,0.0
1306,1306,0.838324689047212,0.8,0,349.0,640.0,0.0,241.0,1,0.0,0.0
1307,1307,-0.005613721907991698,-0.0,1,385.0,893.0,1.0,1332.0,1,0.0,0.0
1308,1308,0.09436997776581668,0.1,0,408.0,675.0,1.0,837.0,0,0.0,0.0
1309,1309,-0.5270846313829429,-0.5,1,355.0,732.0,1.0,343.0,1,0.0,0.0
1310,1310,0.36543252876643373,0.4,0,436.0,508.0,0.0,746.0,1,0.0,0.0
1311,1311,0.523505202796994,0.5,0,400.0,532.0,0.0,648.0,1,0.0,0.0
1312,1312,-0.5458736915273665,-0.5,1,287.0,621.0,1.0,262.0,1,0.0,0.0
1313,1313,0.6784859677460484,0.7,0,369.0,583.0,0.0,258.0,1,0.0,0.0
1314,1314,0.12839716673563273,0.1,0,452.0,509.0,0.0,839.0,1,0.0,0.0
1315,1315,-0.21846908329376324,-0.2,1,377.0,600.0,1.0,703.0,1,0.0,0.0
1316,1316,0.4664152445155074,0.5,0,441.0,646.0,0.0,473.0,1,0.0,0.0
1317,1317,-0.906657659554454,-0.9,1,489.0,984.0,1.0,197.0,1,0.0,0.0
1318,1318,0.36413120420529155,0.4,0,327.0,646.0,0.0,557.0,1,0.0,0.0
1319,1319,-0.3910503762544397,-0.4,1,262.0,785.0,1.0,413.0,1,0.0,0.0
1320,1320,0.22287379798531304,0.2,0,483.0,807.0,0.0,1730.0,1,0.0,0.0
1321,1321,0.1681177249434882,0.2,0,338.0,795.0,1.0,657.0,0,0.0,0.0
1322,1322,0.4166802755501695,0.4,0,479.0,818.0,0.0,543.0,1,0.0,0.0
1323,1323,-0.7890874752283286,-0.8,1,410.0,557.0,1.0,303.0,1,0.0,0.0
1324,1324,0.20377719866708466,0.2,0,421.0,896.0,0.0,973.0,1,0.0,0.0
1325,1325,0.9912924148204207,1.0,0,469.0,676.0,0.0,265.0,1,0.0,0.0
1326,1326,0.4850566687929423,0.5,0,479.0,891.0,0.0,300.0,1,0.0,0.0
1327,1327,0.09429649162154297,0.1,0,313.0,554.0,1.0,953.0,0,0.0,0.0
1328,1328,0.06967664417066666,0.1,0,284.0,675.0,1.0,291.0,0,0.0,0.0
1329,1329,-0.38620107224276,-0.4,1,299.0,846.0,1.0,325.0,1,0.0,0.0
1330,1330,0.33608091719961486,0.3,0,465.0,825.0,0.0,800.0,1,0.0,0.0
1331,1331,0.5894807150558086,0.6,0,456.0,884.0,0.0,490.0,1,0.0,0.0
1332,1332,-0.3086035875755493,-0.3,1,430.0,714.0,1.0,1056.0,1,0.0,0.0
1333,1333,-0.6386045933072069,-0.6,1,383.0,981.0,1.0,446.0,1,0.0,0.0
1334,1334,-0.6004695983278332,-0.6,1,357.0,730.0,1.0,413.0,1,0.0,0.0
1335,1335,0.398126962033196,0.4,0,320.0,578.0,0.0,852.0,1,0.0,0.0
1336,1336,-0.8889396374733376,-0.9,1,313.0,662.0,1.0,255.0,1,0.0,0.0
1337,1337,0.6418332810197123,0.6,0,383.0,708.0,0.0,559.0,1,0.0,0.0
1338,1338,-0.8418786068781383,-0.8,1,346.0,933.0,1.0,531.0,1,0.0,0.0
1339,1339,0.7269534683993073,0.7,0,434.0,948.0,0.0,548.0,1,0.0,0.0
1340,1340,0.7936354788312852,0.8,0,299.0,856.0,0.0,325.0,1,0.0,0.0
1341,1341,0.9869989386628233,1.0,0,364.0,944.0,0.0,392.0,1,0.0,0.0
1342,1342,-0.7530279353902791,-0.8,1,353.0,757.0,1.0,350.0,1,0.0,0.0
1343,1343,-0.7892369195566973,-0.8,1,270.0,770.0,1.0,390.0,1,0.0,0.0
1344,1344,-0.7020147685522884,-0.7,1,480.0,974.0,1.0,446.0,1,0.0,0.0
1345,1345,0.11496990655711592,0.1,0,375.0,849.0,0.0,1236.0,1,0.0,0.0
1346,1346,-0.490962143876698,-0.5,1,408.0,588.0,1.0,624.0,1,0.0,0.0
1347,1347,0.6044441961385625,0.6,0,438.0,541.0,0.0,321.0,1,0.0,0.0
1348,1348,-0.4907465682052594,-0.5,1,326.0,981.0,1.0,253.0,1,0.0,0.0
1349,1349,-0.5046595406477068,-0.5,1,340.0,608.0,1.0,562.0,1,0.0,0.0
1350,1350,-0.5024208825857903,-0.5,1,270.0,921.0,1.0,249.0,1,0.0,0.0
1351,1351,-0.8601319973504642,-0.9,1,306.0,569.0,1.0,425.0,1,0.0,0.0
1352,1352,0.903156614531021,0.9,0,373.0,926.0,0.0,271.0,1,0.0,0.0
1353,1353,-0.6017139250925825,-0.6,1,372.0,600.0,1.0,318.0,1,0.0,0.0
1354,1354,-0.908344411337697,-0.9,1,359.0,873.0,1.0,328.0,1,0.0,0.0
1355,1355,0.08395524699911139,0.1,0,397.0,648.0,1.0,2175.0,0,0.0,0.0
1356,1356,-0.5526502175573595,-0.6,1,405.0,908.0,1.0,197.0,1,0.0,0.0
1357,1357,0.6799367341478137,0.7,0,478.0,804.0,0.0,378.0,1,0.0,0.0
1358,1358,-0.5501860773487945,-0.6,1,371.0,622.0,1.0,387.0,1,0.0,0.0
1359,1359,0.6444915903716,0.6,0,496.0,893.0,0.0,591.0,1,0.0,0.0
1360,1360,-0.7768909262031758,-0.8,1,393.0,770.0,1.0,467.0,1,0.0,0.0
1361,1361,0.20399941928310583,0.2,0,461.0,979.0,0.0,1150.0,1,0.0,0.0
1362,1362,0.37260397866750483,0.4,0,395.0,971.0,0.0,1074.0,1,0.0,0.0
1363,1363,-0.10421252682511306,-0.1,1,252.0,500.0,1.0,928.0,1,0.0,0.0
1364,1364,0.520174899856038,0.5,0,447.0,686.0,0.0,387.0,1,0.0,0.0
1365,1365,0.36612331669076603,0.4,0,293.0,644.0,0.0,283.0,1,0.0,0.0
1366,1366,0.49493896668733406,0.5,0,488.0,671.0,0.0,491.0,1,0.0,0.0
1367,1367,0.23069199268871232,0.2,0,323.0,624.0,0.0,573.0,1,0.0,0.0
1368,1368,-0.02624207848978899,-0.0,1,359.0,812.0,1.0,619.0,1,0.0,0.0
1369,1369,0.6049731347210263,0.6,0,365.0,701.0,0.0,234.0,1,0.0,0.0
1370,1370,-0.5391463948488966,-0.5,1,323.0,685.0,1.0,252.0,1,0.0,0.0
1371,1371,-0.06191612228714938,-0.1,1,290.0,914.0,1.0,596.0,1,0.0,0.0
1372,1372,-0.04652115133093049,-0.0,1,303.0,571.0,0.0,1056.0,0,0.0,0.0
1373,1373,-0.038285059155156675,-0.0,1,382.0,783.0,1.0,775.0,1,0.0,0.0
1374,1374,0.6123124053619431,0.6,0,468.0,681.0,0.0,281.0,1,0.0,0.0
1375,1375,0.9776048989865418,1.0,0,280.0,533.0,0.0,297.0,1,0.0,0.0
1376,1376,-0.3750175773513649,-0.4,1,269.0,951.0,1.0,690.0,1,0.0,0.0
1377,1377,0.7973806967809258,0.8,0,283.0,602.0,0.0,155.0,1,0.0,0.0
1378,1378,0.42369034160259456,0.4,0,362.0,631.0,0.0,607.0,1,0.0,0.0
1379,1379,0.1990033917394045,0.2,0,385.0,548.0,0.0,3187.0,1,0.0,0.0
1380,1380,-0.0959549527701744,-0.1,1,430.0,511.0,1.0,569.0,1,0.0,0.0
1381,1381,0.8859365681541296,0.9,0,338.0,944.0,0.0,348.0,1,0.0,0.0
1382,1382,-0.8853239651834552,-0.9,1,458.0,558.0,1.0,504.0,1,0.0,0.0
1383,1383,-0.22134954269235596,-0.2,1,342.0,950.0,1.0,348.0,1,0.0,0.0
1384,1384,-0.42885344511003876,-0.4,1,423.0,536.0,1.0,441.0,1,0.0,0.0
1385,1385,0.795769578055425,0.8,0,430.0,535.0,0.0,335.0,1,0.0,0.0
1386,1386,0.4956951474282105,0.5,0,398.0,610.0,0.0,202.0,1,0.0,0.0
1387,1387,-0.24616515501511382,-0.2,1,405.0,720.0,1.0,865.0,1,0.0,0.0
1388,1388,-0.824919667315752,-0.8,1,406.0,726.0,1.0,288.0,1,0.0,0.0
1389,1389,0.1328795219795087,0.1,0,302.0,974.0,0.0,1024.0,1,0.0,0.0
1390,1390,0.5453158923067529,0.5,0,356.0,644.0,0.0,310.0,1,0.0,0.0
1391,1391,0.532252075121979,0.5,0,415.0,618.0,0.0,287.0,1,0.0,0.0
1392,1392,0.18236811126178631,0.2,0,410.0,607.0,0.0,433.0,1,0.0,0.0
1393,1393,0.6724322169965362,0.7,0,362.0,944.0,0.0,444.0,1,0.0,0.0
1394,1394,-0.7256648714607443,-0.7,1,427.0,722.0,1.0,461.0,1,0.0,0.0
1395,1395,-0.8337460325691444,-0.8,1,253.0,694.0,1.0,393.0,1,0.0,0.0
1396,1396,0.06368618521168345,0.1,0,421.0,885.0,1.0,734.0,0,0.0,0.0
1397,1397,-0.3097355126933474,-0.3,1,450.0,508.0,1.0,582.0,1,0.0,0.0
1398,1398,-0.8163519689655376,-0.8,1,307.0,829.0,1.0,274.0,1,0.0,0.0
1399,1399,-0.7295305926343572,-0.7,1,408.0,763.0,1.0,379.0,1,0.0,0.0
1400,1400,0.27326144486184,0.3,0,263.0,628.0,0.0,299.0,1,0.0,0.0
1401,1401,0.2917790490374912,0.3,0,400.0,864.0,0.0,426.0,1,0.0,0.0
1402,1402,-0.5188509893387252,-0.5,1,298.0,799.0,1.0,313.0,1,0.0,0.0
1403,1403,-0.8118800922903338,-0.8,1,476.0,845.0,1.0,389.0,1,0.0,0.0
1404,1404,-0.642330875390384,-0.6,1,399.0,855.0,1.0,496.0,1,0.0,0.0
1405,1405,0.3915719062133165,0.4,0,376.0,819.0,0.0,815.0,1,0.0,0.0
1406,1406,0.29974032778692994,0.3,0,306.0,550.0,0.0,704.0,1,0.0,0.0
1407,1407,-0.09543105947158126,-0.1,1,353.0,646.0,1.0,291.0,1,0.0,0.0
1408,1408,0.16990677294234646,0.2,0,316.0,639.0,0.0,935.0,1,0.0,0.0
1409,1409,-0.9875122519728936,-1.0,1,287.0,942.0,1.0,181.0,1,0.0,0.0
1410,1410,0.15685862223469393,0.2,0,276.0,938.0,0.0,706.0,1,0.0,0.0
1411,1411,0.40162914820355367,0.4,0,493.0,682.0,0.0,675.0,1,0.0,0.0
1412,1412,-0.4073326961741226,-0.4,1,317.0,689.0,1.0,1044.0,1,0.0,0.0
1413,1413,-0.8853218780138417,-0.9,1,460.0,818.0,1.0,392.0,1,0.0,0.0
1414,1414,0.09545195035179099,0.1,0,346.0,509.0,1.0,995.0,0,0.0,0.0
1415,1415,-0.9788325469940864,-1.0,1,268.0,831.0,1.0,281.0,1,0.0,0.0
1416,1416,0.3676055682599526,0.4,0,418.0,806.0,0.0,1116.0,1,0.0,0.0
1417,1417,-0.003552482507781063,-0.0,1,338.0,986.0,1.0,2136.0,1,0.0,0.0
1418,1418,0.8741658321705281,0.9,0,291.0,702.0,0.0,387.0,1,0.0,0.0
1419,1419,-0.4452915467828924,-0.4,1,282.0,843.0,1.0,395.0,1,0.0,0.0
1420,1420,-0.5917993039157379,-0.6,1,298.0,793.0,1.0,279.0,1,0.0,0.0
1421,1421,-0.2508584438623942,-0.3,1,282.0,914.0,1.0,324.0,1,0.0,0.0
1422,1422,-0.7016036475966039,-0.7,1,283.0,733.0,1.0,414.0,1,0.0,0.0
1423,1423,0.9792732185752506,1.0,0,410.0,541.0,0.0,389.0,1,0.0,0.0
1424,1424,0.7072616171092325,0.7,0,465.0,949.0,0.0,536.0,1,0.0,0.0
1425,1425,0.1445293580711562,0.1,0,321.0,833.0,0.0,856.0,1,0.0,0.0
1426,1426,-0.2604651458337477,-0.3,1,496.0,598.0,1.0,1136.0,1,0.0,0.0
1427,1427,0.7931404524255594,0.8,0,398.0,875.0,0.0,227.0,1,0.0,0.0
1428,1428,-0.31197370481410625,-0.3,1,266.0,770.0,1.0,264.0,1,0.0,0.0
1429,1429,-0.07521452568931397,-0.1,1,445.0,789.0,0.0,1006.0,0,0.0,0.0
1430,1430,-0.5445796916548864,-0.5,1,362.0,736.0,1.0,372.0,1,0.0,0.0
1431,1431,0.7023266019009462,0.7,0,260.0,973.0,0.0,437.0,1,0.0,0.0
1432,1432,-0.5003702374009067,-0.5,1,252.0,674.0,1.0,494.0,1,0.0,0.0
1433,1433,0.7194922898155034,0.7,0,304.0,637.0,0.0,529.0,1,0.0,0.0
1434,1434,-0.6151159230727477,-0.6,1,400.0,926.0,1.0,864.0,1,0.0,0.0
1435,1435,0.7947377670075884,0.8,0,332.0,855.0,0.0,373.0,1,0.0,0.0
1436,1436,0.9896543329840273,1.0,0,289.0,573.0,0.0,148.0,1,0.0,0.0
1437,1437,0.5687488967463152,0.6,0,419.0,686.0,0.0,485.0,1,0.0,0.0
1438,1438,0.016303132257352804,0.0,0,418.0,870.0,1.0,1352.0,0,0.0,0.0
1439,1439,-0.5661195935511136,-0.6,1,260.0,551.0,1.0,199.0,1,0.0,0.0
1440,1440,-0.06877364203231129,-0.1,1,489.0,886.0,1.0,515.0,1,0.0,0.0
1441,1441,-0.32250396214874955,-0.3,1,255.0,679.0,1.0,446.0,1,0.0,0.0
1442,1442,0.504253059498623,0.5,0,405.0,887.0,0.0,338.0,1,0.0,0.0
1443,1443,-0.9729294473582686,-1.0,1,266.0,951.0,1.0,323.0,1,0.0,0.0
1444,1444,0.338086518005583,0.3,0,333.0,633.0,0.0,714.0,1,0.0,0.0
1445,1445,-0.3762326480881426,-0.4,1,400.0,507.0,1.0,943.0,1,0.0,0.0
1446,1446,0.31647512086095686,0.3,0,313.0,729.0,0.0,1058.0,1,0.0,0.0
1447,1447,0.9575045572771312,1.0,0,471.0,919.0,0.0,360.0,1,0.0,0.0
1448,1448,0.9865276407572925,1.0,0,263.0,730.0,0.0,367.0,1,0.0,0.0
1449,1449,0.6852907467711311,0.7,0,353.0,825.0,0.0,422.0,1,0.0,0.0
1450,1450,-0.6624965282727351,-0.7,1,376.0,521.0,1.0,203.0,1,0.0,0.0
1451,1451,0.603612394889008,0.6,0,313.0,960.0,0.0,387.0,1,0.0,0.0
1452,1452,-0.608933731383829,-0.6,1,278.0,596.0,1.0,286.0,1,0.0,0.0
1453,1453,0.01002979585589503,0.0,0,475.0,858.0,1.0,2117.0,0,0.0,0.0
1454,1454,0.4159027565922677,0.4,0,404.0,664.0,0.0,1002.0,1,0.0,0.0
1455,1455,-0.07370246346937726,-0.1,1,491.0,606.0,1.0,753.0,1,0.0,0.0
1456,1456,0.8251532311106808,0.8,0,364.0,899.0,0.0,277.0,1,0.0,0.0
1457,1457,0.6610417244888358,0.7,0,346.0,803.0,0.0,831.0,1,0.0,0.0
1458,1458,-0.8235731806201245,-0.8,1,336.0,801.0,1.0,363.0,1,0.0,0.0
1459,1459,0.9030975840602091,0.9,0,411.0,526.0,0.0,343.0,1,0.0,0.0
1460,1460,-0.03157062252562293,-0.0,1,297.0,571.0,1.0,632.0,1,0.0,0.0
1461,1461,-0.5685686666016989,-0.6,1,366.0,978.0,1.0,386.0,1,0.0,0.0
1462,1462,-0.3501797570257992,-0.4,1,359.0,526.0,1.0,885.0,1,0.0,0.0
1463,1463,-0.7662144601254477,-0.8,1,493.0,984.0,1.0,503.0,1,0.0,0.0
1464,1464,0.8106441660286385,0.8,0,475.0,820.0,0.0,225.0,1,0.0,0.0
1465,1465,0.2121002492709363,0.2,0,320.0,799.0,0.0,1981.0,1,0.0,0.0
1466,1466,0.14333549310804994,0.1,0,462.0,926.0,1.0,462.0,0,0.0,0.0
1467,1467,0.8374043548251375,0.8,0,322.0,635.0,0.0,343.0,1,0.0,0.0
1468,1468,-0.07531201415934174,-0.1,1,347.0,540.0,1.0,593.0,1,0.0,0.0
1469,1469,0.29299217890363005,0.3,0,481.0,659.0,0.0,420.0,1,0.0,0.0
1470,1470,0.10547904929638685,0.1,0,303.0,590.0,1.0,957.0,0,0.0,0.0
1471,1471,-0.9294290445581566,-0.9,1,319.0,701.0,1.0,250.0,1,0.0,0.0
1472,1472,-0.3858265864207868,-0.4,1,297.0,528.0,1.0,745.0,1,0.0,0.0
1473,1473,0.4464622358545378,0.4,0,259.0,533.0,0.0,488.0,1,0.0,0.0
1474,1474,-0.9776539742229262,-1.0,1,292.0,718.0,1.0,240.0,1,0.0,0.0
1475,1475,0.6087106489752363,0.6,0,469.0,956.0,0.0,895.0,1,0.0,0.0
1476,1476,-0.6139180400496365,-0.6,1,365.0,524.0,1.0,311.0,1,0.0,0.0
1477,1477,0.8835702960520702,0.9,0,457.0,991.0,0.0,412.0,1,0.0,0.0
1478,1478,-0.12520305897122097,-0.1,1,418.0,832.0,1.0,650.0,1,0.0,0.0
1479,1479,0.4809490397035048,0.5,0,275.0,577.0,0.0,338.0,1,0.0,0.0
1480,1480,0.7361015620924467,0.7,0,442.0,612.0,0.0,566.0,1,0.0,0.0
1481,1481,0.7598659143260558,0.8,0,465.0,551.0,0.0,314.0,1,0.0,0.0
1482,1482,-0.2315767608368382,-0.2,1,291.0,889.0,1.0,600.0,1,0.0,0.0
1483,1483,-0.03147640051744949,-0.0,1,479.0,519.0,1.0,942.0,1,0.0,0.0
1484,1484,0.7905906250698875,0.8,0,338.0,601.0,0.0,231.0,1,0.0,0.0
1485,1485,0.11480987872875392,0.1,0,299.0,574.0,0.0,1987.0,1,0.0,0.0
1486,1486,0.8494238784269115,0.8,0,297.0,623.0,0.0,350.0,1,0.0,0.0
1487,1487,-0.2741800723262775,-0.3,1,327.0,530.0,1.0,833.0,1,0.0,0.0
1488,1488,-0.32351208552757593,-0.3,1,474.0,647.0,1.0,329.0,1,0.0,0.0
1489,1489,-0.9233875399801523,-0.9,1,396.0,853.0,1.0,281.0,1,0.0,0.0
1490,1490,-0.09204540693964036,-0.1,1,351.0,811.0,1.0,1178.0,1,0.0,0.0
