,trial,coherence,coherence_bin,correct_side,target_onset,checker_onset,decision,decision_time,correct_decision,init_y_left
0,0,0.16301075168906975,0.2,0,285.0,601.0,0.0,344.0,1,0.3042166706500257
1,1,0.7918279309834073,0.8,0,380.0,924.0,0.0,-894.0,1,0.4508362120050313
2,2,-0.22028841415557032,-0.2,1,482.0,735.0,1.0,533.0,1,0.35323998950235896
3,3,0.742744347332366,0.7,0,320.0,525.0,0.0,255.0,1,0.32748334486753744
4,4,0.19411040643941324,0.2,0,477.0,744.0,0.0,659.0,1,0.3662932700313944
5,5,0.7669832547796387,0.8,0,431.0,840.0,0.0,179.0,1,0.370874506279606
6,6,-0.038609272334878764,-0.0,1,309.0,583.0,0.0,888.0,0,0.3681212250573738
7,7,0.16214819816243686,0.2,0,318.0,930.0,0.0,1152.0,1,0.40307614824528865
8,8,0.820178279384908,0.8,0,276.0,736.0,0.0,1188.0,1,0.46843167303739625
9,9,0.1978232631893857,0.2,0,499.0,981.0,0.0,500.0,1,0.33121372720258324
10,10,-0.07533544177681661,-0.1,1,340.0,839.0,1.0,591.0,1,0.41753592488824026
11,11,0.8096332955958867,0.8,0,402.0,953.0,0.0,205.0,1,0.3295788266039384
12,12,-0.2819111519140467,-0.3,1,326.0,890.0,1.0,474.0,1,0.3672205476479894
13,13,0.46730677813226507,0.5,0,272.0,632.0,0.0,396.0,1,0.4958970555379143
14,14,0.5861907803013717,0.6,0,444.0,573.0,0.0,353.0,1,0.3138425698833054
15,15,0.3035744206538271,0.3,0,438.0,543.0,0.0,449.0,1,0.4100550681248568
16,16,0.5363304772451578,0.5,0,457.0,892.0,0.0,201.0,1,0.41418123313012295
17,17,-0.31761819299272176,-0.3,1,450.0,652.0,1.0,328.0,1,0.48808039069494724
18,18,0.7780835060821283,0.8,0,299.0,771.0,0.0,220.0,1,0.4079311875573798
19,19,-0.3280883802939747,-0.3,1,481.0,932.0,1.0,347.0,1,0.35260460162259355
20,20,-0.5037851078022253,-0.5,1,346.0,824.0,1.0,330.0,1,0.48424224194774146
21,21,-0.9752629325334914,-1.0,1,357.0,778.0,1.0,465.0,1,0.31647405675974943
22,22,-0.685684726317582,-0.7,1,478.0,857.0,1.0,385.0,1,0.47845546046859155
23,23,-0.42109660703065566,-0.4,1,488.0,975.0,1.0,307.0,1,0.3513714417279805
24,24,-0.9395381307682644,-0.9,1,327.0,663.0,1.0,220.0,1,0.3214574694697593
25,25,0.8131879509010331,0.8,0,293.0,634.0,0.0,323.0,1,0.4404734971158982
26,26,0.5437222865059566,0.5,0,291.0,572.0,0.0,607.0,1,0.30435910838152763
27,27,0.7233988833421758,0.7,0,432.0,816.0,0.0,222.0,1,0.3944630766532486
28,28,-0.1958164778053464,-0.2,1,469.0,552.0,1.0,609.0,1,0.4793500735167695
29,29,-0.019795232806072205,-0.0,1,252.0,963.0,0.0,305.0,0,0.3257052986399846
30,30,0.67550452780171,0.7,0,342.0,942.0,0.0,386.0,1,0.3963127506770109
31,31,-0.39881580229001634,-0.4,1,335.0,834.0,1.0,351.0,1,0.33807460713784665
32,32,0.5544346759689811,0.6,0,321.0,532.0,0.0,307.0,1,0.4050054231764959
33,33,0.38104727606985533,0.4,0,385.0,672.0,0.0,283.0,1,0.39984930658525747
34,34,-0.27282355095729827,-0.3,1,295.0,559.0,1.0,776.0,1,0.31781127061771874
35,35,0.9724679141161416,1.0,0,316.0,604.0,0.0,120.0,1,0.4016291713257879
36,36,0.07233526555630498,0.1,0,329.0,508.0,1.0,2873.0,0,0.47678641174865627
37,37,0.4324186404313939,0.4,0,361.0,780.0,0.0,729.0,1,0.4683357952037239
38,38,0.1477039449330333,0.1,0,341.0,674.0,0.0,1435.0,1,0.4853291859611661
39,39,-0.30026946539104626,-0.3,1,462.0,730.0,1.0,288.0,1,0.3880474643210801
40,40,0.24068063699418074,0.2,0,289.0,908.0,0.0,243.0,1,0.437651731143604
41,41,0.3255738869649618,0.3,0,369.0,808.0,0.0,403.0,1,0.32909388301964093
42,42,-0.8271517673862785,-0.8,1,351.0,700.0,1.0,299.0,1,0.3028791515490776
43,43,-0.30965232493356676,-0.3,1,342.0,837.0,1.0,1181.0,1,0.3987163461106356
44,44,-0.44627270455457335,-0.4,1,396.0,612.0,1.0,332.0,1,0.3491002542419056
45,45,0.5879952325464393,0.6,0,385.0,726.0,0.0,379.0,1,0.43845884815447744
46,46,0.9690922638938777,1.0,0,409.0,976.0,0.0,245.0,1,0.3349169279213888
47,47,-0.4092485050061476,-0.4,1,274.0,793.0,1.0,593.0,1,0.4876831153326006
48,48,-0.5779684597065211,-0.6,1,366.0,956.0,1.0,518.0,1,0.4674653242662324
49,49,0.5904462813101843,0.6,0,387.0,554.0,0.0,389.0,1,0.4349735011312842
50,50,-0.7976369581257601,-0.8,1,416.0,908.0,1.0,416.0,1,0.3523464695536589
51,51,0.3813165264739289,0.4,0,363.0,736.0,0.0,1351.0,1,0.44526281740506163
52,52,-0.9509422164593675,-1.0,1,419.0,595.0,1.0,246.0,1,0.4983066428845519
53,53,-0.5294055924621104,-0.5,1,416.0,893.0,1.0,411.0,1,0.4274249402686783
54,54,-0.19641484651554642,-0.2,1,289.0,659.0,1.0,372.0,1,0.4557336285244682
55,55,0.7685515116038417,0.8,0,331.0,537.0,0.0,1412.0,1,0.4998954766624045
56,56,0.6277299620585084,0.6,0,322.0,768.0,0.0,430.0,1,0.4405242642789514
57,57,-0.6803686293761915,-0.7,1,267.0,749.0,1.0,314.0,1,0.3174182874857222
58,58,0.5941332204445722,0.6,0,474.0,836.0,0.0,300.0,1,0.42656641197799794
59,59,0.3515508624508059,0.4,0,283.0,997.0,0.0,220.0,1,0.3114257378123173
60,60,-0.17944582906877438,-0.2,1,303.0,662.0,1.0,1275.0,1,0.4766188263877318
61,61,-0.15892722561013928,-0.2,1,427.0,674.0,1.0,569.0,1,0.3270123043035922
62,62,-0.6770705386872791,-0.7,1,422.0,894.0,1.0,234.0,1,0.39388667303019753
63,63,0.5676148377086117,0.6,0,466.0,727.0,0.0,1107.0,1,0.3402253174076979
64,64,-0.8887521048682165,-0.9,1,442.0,713.0,1.0,305.0,1,0.3840245255915061
65,65,-0.7305576758140293,-0.7,1,313.0,972.0,1.0,525.0,1,0.39137955674531694
66,66,-0.41536286100185804,-0.4,1,257.0,823.0,1.0,480.0,1,0.3735063464048444
67,67,-0.0043701190749114716,-0.0,1,484.0,735.0,0.0,181.0,0,0.46569645186842956
68,68,0.19090395808346594,0.2,0,284.0,749.0,0.0,697.0,1,0.3592043410865096
69,69,0.5236216276625039,0.5,0,384.0,664.0,0.0,902.0,1,0.4148323045744067
70,70,0.3786261606124264,0.4,0,288.0,586.0,0.0,1006.0,1,0.3975205242554408
71,71,-0.26066634441788894,-0.3,1,377.0,728.0,1.0,205.0,1,0.4899531017827338
72,72,0.6530240093196713,0.7,0,438.0,776.0,0.0,156.0,1,0.3211035661113396
73,73,-0.09709233419632368,-0.1,1,448.0,584.0,1.0,858.0,1,0.3727036159277491
74,74,0.9461272648202637,0.9,0,287.0,883.0,0.0,160.0,1,0.4986703456681454
75,75,0.27733131872380334,0.3,0,341.0,563.0,0.0,176.0,1,0.44410217999993606
76,76,0.6029499692761424,0.6,0,393.0,627.0,0.0,780.0,1,0.3610903752697471
77,77,-0.23276028259425185,-0.2,1,411.0,504.0,1.0,995.0,1,0.3233140519917566
78,78,-0.19378565873202858,-0.2,1,250.0,939.0,1.0,291.0,1,0.47315218825937594
79,79,-0.3890457653275805,-0.4,1,343.0,609.0,1.0,758.0,1,0.321591448424842
80,80,-0.2721637497113598,-0.3,1,272.0,735.0,1.0,343.0,1,0.4188319610887107
81,81,0.7457735059668644,0.7,0,263.0,689.0,0.0,478.0,1,0.3007329547816538
82,82,0.9847494528211662,1.0,0,445.0,798.0,0.0,257.0,1,0.39234380675893504
83,83,-0.6513345622052604,-0.7,1,276.0,566.0,1.0,348.0,1,0.36305466501089084
84,84,0.6286662896073714,0.6,0,259.0,542.0,0.0,249.0,1,0.40502866255374564
85,85,0.6166070129724293,0.6,0,360.0,568.0,0.0,862.0,1,0.3774086695105721
86,86,0.6714212869882024,0.7,0,319.0,916.0,0.0,295.0,1,0.3434836243944638
87,87,-0.5759579947581324,-0.6,1,332.0,793.0,1.0,405.0,1,0.30961263921016263
88,88,-0.27540589040695407,-0.3,1,253.0,666.0,1.0,391.0,1,0.3051919804801271
89,89,0.2216796416210316,0.2,0,300.0,831.0,0.0,609.0,1,0.37689593168060215
90,90,0.6063447868618508,0.6,0,486.0,826.0,0.0,348.0,1,0.3249733180050782
91,91,-0.5420832963319284,-0.5,1,354.0,720.0,1.0,346.0,1,0.34725654440190407
92,92,0.19225026224101116,0.2,0,322.0,800.0,0.0,828.0,1,0.48269793981107534
93,93,-0.8458246563883449,-0.8,1,493.0,596.0,1.0,231.0,1,0.38934062768489824
94,94,-0.6358182598031512,-0.6,1,435.0,614.0,1.0,321.0,1,0.38784447935550725
95,95,0.45593223492890367,0.5,0,453.0,646.0,0.0,581.0,1,0.3409869403769042
96,96,-0.9355947502466875,-0.9,1,269.0,794.0,1.0,467.0,1,0.36594159584591157
97,97,-0.9527012258825744,-1.0,1,493.0,742.0,1.0,215.0,1,0.45932103777879396
98,98,-0.7146599680774584,-0.7,1,466.0,624.0,1.0,270.0,1,0.4496167307262301
99,99,-0.09262537761070133,-0.1,1,295.0,975.0,0.0,180.0,0,0.43043807313534643
100,100,-0.04492242885893227,-0.0,1,262.0,884.0,1.0,674.0,1,0.3980353026789244
101,101,0.5295761275690076,0.5,0,392.0,986.0,0.0,292.0,1,0.4249364005743199
102,102,0.5912837480324722,0.6,0,330.0,816.0,0.0,634.0,1,0.44282332493517773
103,103,0.8350249414297071,0.8,0,465.0,899.0,0.0,476.0,1,0.32316714948694436
104,104,-0.1735877891179367,-0.2,1,477.0,928.0,1.0,405.0,1,0.4389889843418535
105,105,-0.05025459178968239,-0.1,1,408.0,629.0,0.0,493.0,0,0.4654684961890879
106,106,-0.2910095207906276,-0.3,1,427.0,561.0,1.0,642.0,1,0.3197872480573597
107,107,0.5458435283623184,0.5,0,455.0,997.0,0.0,638.0,1,0.35432793242434535
108,108,0.6243192740306438,0.6,0,401.0,807.0,0.0,252.0,1,0.36623829344655634
109,109,0.19344686700641867,0.2,0,400.0,663.0,0.0,587.0,1,0.4262510215828103
110,110,0.41581107817109686,0.4,0,251.0,695.0,0.0,654.0,1,0.47097552879011584
111,111,-0.6555846575577182,-0.7,1,339.0,562.0,1.0,309.0,1,0.31988018744589414
112,112,-0.7248505091919921,-0.7,1,371.0,938.0,1.0,251.0,1,0.3973717125546777
113,113,0.4365512720243456,0.4,0,260.0,859.0,0.0,221.0,1,0.35294426308557636
114,114,0.744469207103768,0.7,0,310.0,770.0,0.0,260.0,1,0.45543357913681387
115,115,-0.6137407759812255,-0.6,1,262.0,622.0,1.0,646.0,1,0.3853176724503563
116,116,-0.3083922580448133,-0.3,1,421.0,901.0,1.0,308.0,1,0.4918695063828027
117,117,0.5739030553642592,0.6,0,470.0,570.0,0.0,590.0,1,0.4809611893772666
118,118,0.7416749536691623,0.7,0,386.0,845.0,0.0,489.0,1,0.4650691994417456
119,119,-0.8806324154687395,-0.9,1,269.0,663.0,1.0,278.0,1,0.4840827318411388
120,120,0.41333051317925773,0.4,0,355.0,717.0,0.0,528.0,1,0.33918344954351526
121,121,0.22395961434087597,0.2,0,354.0,870.0,0.0,1416.0,1,0.3717589158896058
122,122,0.5699884436460998,0.6,0,457.0,659.0,0.0,534.0,1,0.42459359702352034
123,123,-0.3542806905122158,-0.4,1,390.0,849.0,1.0,361.0,1,0.47101772937753256
124,124,0.5722685032257957,0.6,0,495.0,744.0,0.0,521.0,1,0.48404684139588716
125,125,-0.8989448202061023,-0.9,1,257.0,897.0,1.0,396.0,1,0.4172760878528812
126,126,0.13751318778288013,0.1,0,431.0,542.0,1.0,2677.0,0,0.41306052647487984
127,127,-0.596979919453364,-0.6,1,385.0,940.0,1.0,545.0,1,0.42665062242393537
128,128,-0.9574643389254456,-1.0,1,368.0,931.0,1.0,251.0,1,0.3209596022420015
129,129,-0.49825864274020204,-0.5,1,464.0,553.0,1.0,363.0,1,0.42745044385305064
130,130,-0.6505318500548654,-0.7,1,307.0,521.0,1.0,332.0,1,0.41956869179886275
131,131,0.685379940462967,0.7,0,490.0,729.0,0.0,1161.0,1,0.3131252495609858
132,132,-0.43794888650950914,-0.4,1,323.0,754.0,1.0,443.0,1,0.3448769164034541
133,133,0.2704565017902154,0.3,0,460.0,556.0,0.0,374.0,1,0.3609822475228306
134,134,-0.9140903200358546,-0.9,1,358.0,671.0,1.0,321.0,1,0.4752427282232613
135,135,-0.75018107288676,-0.8,1,450.0,517.0,1.0,243.0,1,0.41442002898453495
136,136,0.5902484393581968,0.6,0,451.0,926.0,0.0,303.0,1,0.4787327870196304
137,137,0.5242846580619795,0.5,0,363.0,886.0,0.0,411.0,1,0.32097572517379563
138,138,0.7821271768924476,0.8,0,250.0,838.0,0.0,122.0,1,0.33684814168291194
139,139,-0.7045995058580703,-0.7,1,399.0,794.0,1.0,427.0,1,0.3454924505691884
140,140,0.06544014562712519,0.1,0,405.0,761.0,0.0,-216.0,1,0.4269480828548294
141,141,-0.9059544814080118,-0.9,1,367.0,574.0,1.0,229.0,1,0.33213058830798925
142,142,0.15857913142948443,0.2,0,275.0,760.0,0.0,1545.0,1,0.46885312767491855
143,143,0.29970522999251425,0.3,0,359.0,908.0,0.0,643.0,1,0.3160282519595637
144,144,0.24258432543433694,0.2,0,341.0,952.0,0.0,-473.0,1,0.4574800446000209
145,145,-0.01136745879317469,-0.0,1,261.0,733.0,1.0,1556.0,1,0.39376361152497347
146,146,0.10370948922665724,0.1,0,302.0,532.0,1.0,726.0,0,0.4619448443647727
147,147,0.38358420427528905,0.4,0,342.0,757.0,0.0,481.0,1,0.3515713424311214
148,148,-0.23211451523937598,-0.2,1,472.0,549.0,1.0,709.0,1,0.4278867148645863
149,149,-0.4469166263429565,-0.4,1,304.0,508.0,1.0,358.0,1,0.467537764661072
150,150,0.16827126862414366,0.2,0,471.0,589.0,0.0,1950.0,1,0.34839924324494925
151,151,0.8395468383862108,0.8,0,400.0,548.0,0.0,472.0,1,0.39040238236332564
152,152,-0.7717192880780341,-0.8,1,305.0,801.0,1.0,254.0,1,0.3892429591781511
153,153,0.9625078269985059,1.0,0,450.0,800.0,0.0,-670.0,1,0.3787697002648703
154,154,0.06766972199451615,0.1,0,461.0,610.0,1.0,1929.0,0,0.31949611358587704
155,155,-0.9693994726389743,-1.0,1,484.0,550.0,1.0,496.0,1,0.4399735862790076
156,156,-0.35382952647171617,-0.4,1,448.0,887.0,1.0,305.0,1,0.30605508616881655
157,157,-0.055066102828177144,-0.1,1,293.0,620.0,0.0,1107.0,0,0.34772051920008906
158,158,-0.7129944340318606,-0.7,1,317.0,563.0,1.0,310.0,1,0.4955044999975581
159,159,0.9361130025958704,0.9,0,373.0,801.0,0.0,176.0,1,0.32470636019182825
160,160,-0.028080399301232184,-0.0,1,450.0,582.0,1.0,2118.0,1,0.46709652711204075
161,161,-0.49544560495985035,-0.5,1,484.0,556.0,1.0,280.0,1,0.38987208413845026
162,162,-0.760741765932496,-0.8,1,494.0,727.0,1.0,389.0,1,0.3155758080130653
163,163,-0.41926518734985385,-0.4,1,262.0,505.0,1.0,613.0,1,0.36246912882120635
164,164,0.2869742495147751,0.3,0,439.0,737.0,0.0,554.0,1,0.3174494420993224
165,165,-0.48932981086332883,-0.5,1,309.0,605.0,1.0,746.0,1,0.4576745937490057
166,166,-0.7386875154245118,-0.7,1,357.0,646.0,1.0,237.0,1,0.35611606760464176
167,167,-0.8284669845562473,-0.8,1,301.0,761.0,1.0,168.0,1,0.3634278028867732
168,168,0.6113340069178379,0.6,0,335.0,538.0,0.0,437.0,1,0.40576287798035965
169,169,-0.198386971764263,-0.2,1,318.0,694.0,0.0,528.0,0,0.30472054366960055
170,170,0.755029700889249,0.8,0,339.0,726.0,0.0,245.0,1,0.4509948062904214
171,171,-0.2698821775826743,-0.3,1,274.0,536.0,1.0,730.0,1,0.43657979723829565
172,172,0.8472000000665669,0.8,0,354.0,981.0,0.0,305.0,1,0.40703643318010313
173,173,0.25967912429196494,0.3,0,374.0,584.0,0.0,482.0,1,0.47475824114762905
174,174,-0.9414783510482991,-0.9,1,479.0,925.0,1.0,346.0,1,0.4042108631519028
175,175,-0.22504516012040043,-0.2,1,251.0,806.0,1.0,1123.0,1,0.4626649019208976
176,176,-0.22913458993411395,-0.2,1,332.0,680.0,1.0,788.0,1,0.39792386733382673
177,177,0.6335912508699935,0.6,0,470.0,719.0,0.0,651.0,1,0.3204169033099311
178,178,-0.6117364526947116,-0.6,1,418.0,775.0,1.0,277.0,1,0.42119719297797176
179,179,0.49765521402008184,0.5,0,494.0,774.0,0.0,932.0,1,0.4668476744595578
180,180,-0.5292758774950976,-0.5,1,266.0,912.0,1.0,232.0,1,0.32906737376353173
181,181,0.8340598282810001,0.8,0,338.0,910.0,0.0,262.0,1,0.3931031704977344
182,182,0.1302327592692818,0.1,0,427.0,664.0,0.0,229.0,1,0.4837615074066683
183,183,-0.013530179006427057,-0.0,1,321.0,761.0,1.0,2658.0,1,0.37123744838265926
184,184,-0.5019547925918408,-0.5,1,337.0,736.0,1.0,307.0,1,0.4186250128854433
185,185,0.015806544698963254,0.0,0,444.0,617.0,1.0,719.0,0,0.3295986679521679
186,186,0.19779354513764513,0.2,0,467.0,941.0,0.0,572.0,1,0.410636871880982
187,187,0.4092127069441549,0.4,0,495.0,670.0,0.0,255.0,1,0.4945192216365061
188,188,-0.8971910610280764,-0.9,1,339.0,917.0,1.0,294.0,1,0.3686758694073902
189,189,-0.22322446120247785,-0.2,1,444.0,937.0,1.0,579.0,1,0.3120347162983515
190,190,-0.0421078017891352,-0.0,1,289.0,642.0,1.0,2309.0,1,0.33929816613605684
191,191,-0.747772683318535,-0.7,1,409.0,720.0,1.0,451.0,1,0.49876974218679837
192,192,-0.05605591993842829,-0.1,1,290.0,616.0,0.0,264.0,0,0.47518091242216964
193,193,0.602422260648577,0.6,0,429.0,543.0,0.0,188.0,1,0.3412759049927112
194,194,0.11323446834209383,0.1,0,331.0,911.0,0.0,668.0,1,0.381022913993333
195,195,-0.06462316006705504,-0.1,1,400.0,856.0,1.0,624.0,1,0.36802822326343343
196,196,0.6849503044751393,0.7,0,494.0,849.0,0.0,337.0,1,0.41697171483728973
197,197,0.44359774232534566,0.4,0,385.0,666.0,0.0,1699.0,1,0.3622253791453428
198,198,0.4557602875246074,0.5,0,496.0,699.0,0.0,415.0,1,0.4468454861198117
199,199,0.7483990729075338,0.7,0,385.0,770.0,0.0,335.0,1,0.32230406188332045
200,200,-0.21862785940003904,-0.2,1,280.0,750.0,1.0,640.0,1,0.493230453508644
201,201,0.6636636866713321,0.7,0,413.0,879.0,0.0,278.0,1,0.3279065955491257
202,202,0.6254118336769041,0.6,0,488.0,964.0,0.0,288.0,1,0.4383467161073886
203,203,0.4557084938676388,0.5,0,450.0,914.0,0.0,176.0,1,0.31281692720442106
204,204,-0.42637034580972966,-0.4,1,271.0,872.0,1.0,217.0,1,0.4242282522337204
205,205,0.7204830197838992,0.7,0,346.0,783.0,0.0,591.0,1,0.44705491322898494
206,206,0.919245640430929,0.9,0,475.0,702.0,0.0,653.0,1,0.45622597791179836
207,207,0.9388441308589921,0.9,0,273.0,644.0,0.0,153.0,1,0.40672616259330796
208,208,-0.010313693697030724,-0.0,1,440.0,641.0,1.0,209.0,1,0.4796748994967298
209,209,0.03001932106126559,0.0,0,368.0,722.0,1.0,980.0,0,0.4770310756218521
210,210,-0.3941871442073981,-0.4,1,473.0,912.0,1.0,425.0,1,0.3418663458975653
211,211,-0.610771433445358,-0.6,1,276.0,713.0,1.0,231.0,1,0.35995023231829926
212,212,-0.6198212940299044,-0.6,1,433.0,767.0,1.0,420.0,1,0.45986049762536463
213,213,0.395762495213845,0.4,0,275.0,543.0,0.0,182.0,1,0.3756725593568608
214,214,-0.03787944489218642,-0.0,1,459.0,984.0,1.0,1427.0,1,0.34768171578506113
215,215,0.7165020320039039,0.7,0,264.0,693.0,0.0,103.0,1,0.46233751870615203
216,216,0.833042909274422,0.8,0,295.0,678.0,0.0,127.0,1,0.37103123417644934
217,217,0.35348162237950365,0.4,0,343.0,831.0,0.0,726.0,1,0.3671960711648026
218,218,-0.8593930361238542,-0.9,1,377.0,815.0,1.0,268.0,1,0.4774441289892021
219,219,-0.6488538430844781,-0.6,1,308.0,638.0,1.0,1424.0,1,0.4328576782421031
220,220,-0.9760365626833842,-1.0,1,437.0,773.0,1.0,260.0,1,0.4527202853951884
221,221,-0.1835451447426164,-0.2,1,329.0,839.0,1.0,742.0,1,0.47134625358654036
222,222,0.8699755574426642,0.9,0,412.0,645.0,0.0,633.0,1,0.3400621545985494
223,223,-0.7171550556778361,-0.7,1,289.0,958.0,1.0,493.0,1,0.36249989506116054
224,224,-0.22383514292965123,-0.2,1,344.0,867.0,1.0,1099.0,1,0.3326458105786548
225,225,-0.7901636268196646,-0.8,1,403.0,513.0,1.0,534.0,1,0.3129223614291285
226,226,-0.09716044709953486,-0.1,1,431.0,745.0,1.0,1784.0,1,0.415163103069024
227,227,0.7723146241060375,0.8,0,462.0,813.0,0.0,175.0,1,0.40119888549278426
228,228,0.7117903307655711,0.7,0,411.0,950.0,0.0,209.0,1,0.37053128406167557
229,229,-0.40809345242070005,-0.4,1,413.0,961.0,1.0,496.0,1,0.4189090681759213
230,230,0.9702294235088238,1.0,0,344.0,768.0,0.0,188.0,1,0.4537509547735949
231,231,0.2130999263089326,0.2,0,481.0,569.0,0.0,990.0,1,0.47022616253410027
232,232,-0.5583703195694301,-0.6,1,483.0,958.0,1.0,339.0,1,0.38989232872471646
233,233,-0.8570988589040833,-0.9,1,497.0,870.0,1.0,283.0,1,0.4962631529102539
234,234,0.7053487418450997,0.7,0,287.0,591.0,0.0,552.0,1,0.32032530979285606
235,235,0.14419015371075639,0.1,0,322.0,656.0,0.0,632.0,1,0.3817430234504373
236,236,-0.11594422671324067,-0.1,1,254.0,858.0,1.0,658.0,1,0.39450867446065596
237,237,-0.4697761515929304,-0.5,1,496.0,951.0,1.0,563.0,1,0.39145784121386673
238,238,0.6124995600120013,0.6,0,421.0,736.0,0.0,253.0,1,0.3916598260923453
239,239,0.15726674577576016,0.2,0,338.0,565.0,0.0,277.0,1,0.346817507794142
240,240,0.8371644491883983,0.8,0,417.0,790.0,0.0,213.0,1,0.40748754274346294
241,241,0.7220847974810878,0.7,0,333.0,706.0,0.0,-399.0,1,0.4825081174065224
242,242,0.36111225863145835,0.4,0,415.0,959.0,0.0,1306.0,1,0.3917690077621791
243,243,-0.48525949980656,-0.5,1,287.0,604.0,1.0,449.0,1,0.42185962212733435
244,244,-0.1897239176190968,-0.2,1,454.0,579.0,1.0,1357.0,1,0.4775456656781628
245,245,-0.1756375615399528,-0.2,1,258.0,767.0,1.0,1165.0,1,0.4287778860452206
246,246,0.5284431251765853,0.5,0,272.0,906.0,0.0,372.0,1,0.4349502142942068
247,247,-0.31633272206628815,-0.3,1,311.0,902.0,1.0,407.0,1,0.3079912450735841
248,248,0.9115241528181999,0.9,0,266.0,777.0,0.0,157.0,1,0.4553713126783886
249,249,0.29590464247169557,0.3,0,269.0,908.0,0.0,753.0,1,0.3509603068371398
250,250,0.9627188340637214,1.0,0,252.0,701.0,0.0,167.0,1,0.33315936778297434
251,251,-0.847075659036592,-0.8,1,278.0,592.0,1.0,160.0,1,0.4834098035805453
252,252,0.012196169995329464,0.0,0,486.0,713.0,1.0,2731.0,0,0.33293609001704255
253,253,0.6250073001787355,0.6,0,351.0,889.0,0.0,170.0,1,0.47704019522386354
254,254,-0.5798120893912444,-0.6,1,285.0,623.0,1.0,232.0,1,0.37245383662571785
255,255,-0.6933395525451258,-0.7,1,447.0,820.0,1.0,323.0,1,0.4103236535063877
256,256,-0.520402229865542,-0.5,1,349.0,990.0,1.0,601.0,1,0.31448287222481236
257,257,-0.20322570586421107,-0.2,1,343.0,686.0,1.0,1211.0,1,0.48266247675039553
258,258,-0.8371462885326337,-0.8,1,327.0,594.0,1.0,359.0,1,0.3321932798559401
259,259,0.3669926319468759,0.4,0,431.0,752.0,0.0,157.0,1,0.3404173452498092
260,260,-0.24298082086756323,-0.2,1,466.0,725.0,0.0,409.0,0,0.3787949247372283
261,261,0.5593792535347442,0.6,0,385.0,806.0,0.0,249.0,1,0.4171741048517191
262,262,-0.5442154342019148,-0.5,1,440.0,937.0,1.0,433.0,1,0.44786414312967915
263,263,-0.05702597978692214,-0.1,1,470.0,860.0,0.0,710.0,0,0.30667747142738727
264,264,-0.8261479755534755,-0.8,1,453.0,748.0,1.0,189.0,1,0.44522882540083114
265,265,0.6511326395914097,0.7,0,396.0,741.0,0.0,423.0,1,0.36510234226933824
266,266,0.19257996873734373,0.2,0,411.0,858.0,0.0,731.0,1,0.4593620308333879
267,267,-0.7235198050673723,-0.7,1,344.0,945.0,1.0,571.0,1,0.30686505802787695
268,268,-0.5359137530136291,-0.5,1,342.0,544.0,0.0,184.0,0,0.3446582392597718
269,269,0.668241969683828,0.7,0,373.0,873.0,0.0,94.0,1,0.460749802138096
270,270,0.25639266459957755,0.3,0,432.0,638.0,0.0,1180.0,1,0.33621180619377605
271,271,0.8553546880476603,0.9,0,306.0,803.0,0.0,321.0,1,0.4515649915146314
272,272,0.21187150362350748,0.2,0,285.0,597.0,0.0,308.0,1,0.4353384340997891
273,273,0.5688074838353345,0.6,0,287.0,750.0,0.0,103.0,1,0.4606992288572048
274,274,0.18733715141565277,0.2,0,444.0,799.0,0.0,517.0,1,0.45408937268782945
275,275,-0.05441915945804365,-0.1,1,432.0,796.0,0.0,852.0,0,0.3485279184012676
276,276,0.8770052888199169,0.9,0,333.0,695.0,0.0,42.0,1,0.4879430437346064
277,277,0.43735221486888287,0.4,0,288.0,814.0,0.0,228.0,1,0.35434283850976644
278,278,-0.8121332627057907,-0.8,1,381.0,613.0,1.0,296.0,1,0.3595699718095674
279,279,-0.8883569458296161,-0.9,1,430.0,767.0,1.0,363.0,1,0.43659444077037757
280,280,0.5933772139657374,0.6,0,286.0,939.0,0.0,435.0,1,0.35805078333561435
281,281,-0.04838424466695335,-0.0,1,279.0,736.0,0.0,1595.0,0,0.4996857656636293
282,282,-0.41783149780328155,-0.4,1,262.0,632.0,1.0,186.0,1,0.3044309389077305
283,283,-0.912980872743919,-0.9,1,361.0,508.0,1.0,271.0,1,0.4137051180102197
284,284,0.7260859697067141,0.7,0,481.0,646.0,0.0,383.0,1,0.484335744800182
285,285,0.7067963264577839,0.7,0,368.0,756.0,0.0,136.0,1,0.386103619094438
286,286,0.9951393533314405,1.0,0,464.0,943.0,0.0,263.0,1,0.3028807561302591
287,287,-0.9682835118350841,-1.0,1,406.0,713.0,1.0,371.0,1,0.4767390002212448
288,288,-0.5329787634333032,-0.5,1,356.0,807.0,1.0,497.0,1,0.4289121726476377
289,289,0.5488514605597763,0.5,0,415.0,522.0,0.0,673.0,1,0.40868718311986163
290,290,0.5796046396192818,0.6,0,416.0,806.0,0.0,148.0,1,0.47574266062678383
291,291,-0.8593479325369018,-0.9,1,439.0,533.0,1.0,498.0,1,0.34928720597297724
292,292,0.23278248838696225,0.2,0,263.0,699.0,0.0,618.0,1,0.47309261670244196
293,293,-0.5241233692256058,-0.5,1,286.0,566.0,1.0,488.0,1,0.42242548634357774
294,294,-0.3279591302413929,-0.3,1,416.0,950.0,1.0,604.0,1,0.3466731481729222
295,295,-0.5829419069563238,-0.6,1,466.0,850.0,1.0,244.0,1,0.3786495150976956
296,296,-0.8861423327986435,-0.9,1,262.0,810.0,1.0,438.0,1,0.4871045738108771
297,297,0.9956205074505373,1.0,0,494.0,711.0,0.0,665.0,1,0.3008295716655743
298,298,0.8724747366883259,0.9,0,378.0,958.0,0.0,244.0,1,0.4200502963517902
299,299,-0.36489454933371634,-0.4,1,420.0,891.0,1.0,399.0,1,0.3182810002997448
300,300,-0.2965183016045041,-0.3,1,283.0,930.0,1.0,677.0,1,0.4097101266448757
301,301,0.1791227937585924,0.2,0,354.0,783.0,0.0,243.0,1,0.3797770222282938
302,302,0.9825878876274239,1.0,0,474.0,639.0,0.0,537.0,1,0.3722148599720879
303,303,-0.6279826057952489,-0.6,1,365.0,543.0,1.0,312.0,1,0.46474404565177546
304,304,-0.7141889515518114,-0.7,1,262.0,582.0,1.0,346.0,1,0.4467158793765799
305,305,0.008033590220009934,0.0,0,255.0,752.0,1.0,863.0,0,0.4758735694842304
306,306,-0.24112990450207095,-0.2,1,285.0,567.0,1.0,598.0,1,0.4861987468821467
307,307,-0.36536307935253576,-0.4,1,279.0,942.0,1.0,379.0,1,0.3900157144727706
308,308,0.9537053867174883,1.0,0,468.0,854.0,0.0,458.0,1,0.4714514784350262
309,309,-0.4281379216885277,-0.4,1,306.0,872.0,1.0,352.0,1,0.4430709899530382
310,310,-0.582123455051593,-0.6,1,471.0,663.0,1.0,326.0,1,0.4663134304470029
311,311,0.4725480725225355,0.5,0,284.0,862.0,0.0,594.0,1,0.37780304493626515
312,312,0.2165684436529125,0.2,0,316.0,515.0,0.0,489.0,1,0.4968467991089688
313,313,0.2536641476361019,0.3,0,287.0,726.0,0.0,527.0,1,0.42287336543256493
314,314,0.3783694376623872,0.4,0,356.0,917.0,0.0,987.0,1,0.4477936150903028
315,315,0.10423600374420383,0.1,0,374.0,898.0,0.0,2428.0,1,0.4328079123311449
316,316,-0.15268764583869987,-0.2,1,424.0,509.0,0.0,1487.0,0,0.4735588143077467
317,317,0.9766061561546364,1.0,0,420.0,988.0,0.0,522.0,1,0.4306909801780282
318,318,0.36285182573280794,0.4,0,344.0,968.0,0.0,348.0,1,0.41523693344994095
319,319,-0.8848737608798423,-0.9,1,303.0,513.0,1.0,274.0,1,0.3074541722788658
320,320,-0.41365287317751176,-0.4,1,279.0,935.0,1.0,226.0,1,0.41617622947596433
321,321,0.569273810317793,0.6,0,346.0,706.0,0.0,168.0,1,0.4789443898309125
322,322,-0.5913501254730531,-0.6,1,309.0,600.0,1.0,441.0,1,0.3787394199948961
323,323,-0.4306755440084662,-0.4,1,465.0,906.0,1.0,409.0,1,0.3464884421036453
324,324,-0.4370475061041552,-0.4,1,445.0,705.0,0.0,170.0,0,0.30372382011825455
325,325,0.477345999289031,0.5,0,383.0,998.0,0.0,509.0,1,0.4814344991415123
326,326,-0.24896243450008249,-0.2,1,391.0,758.0,1.0,991.0,1,0.4581906658765703
327,327,0.009248611283287023,0.0,0,417.0,904.0,0.0,519.0,1,0.3682766965712553
328,328,0.17852052519834682,0.2,0,305.0,684.0,0.0,391.0,1,0.48713804935596866
329,329,0.009826462066146346,0.0,0,348.0,900.0,0.0,1302.0,1,0.4116464457888255
330,330,-0.9213132131072141,-0.9,1,476.0,832.0,1.0,292.0,1,0.4304701803977799
331,331,-0.22709410812160757,-0.2,1,277.0,984.0,1.0,599.0,1,0.3649211453193947
332,332,-0.06646011175483912,-0.1,1,466.0,810.0,1.0,454.0,1,0.35219119132352034
333,333,-0.472346655580006,-0.5,1,339.0,609.0,1.0,602.0,1,0.40911367362994966
334,334,-0.2475194435431145,-0.2,1,476.0,788.0,1.0,416.0,1,0.45638492377595585
335,335,0.5826990712784932,0.6,0,306.0,715.0,0.0,279.0,1,0.3984831330813348
336,336,-0.27127040574874406,-0.3,1,305.0,971.0,1.0,224.0,1,0.4512511272432152
337,337,0.8750856749317235,0.9,0,423.0,560.0,0.0,167.0,1,0.4674521526102129
338,338,0.801493431908509,0.8,0,329.0,634.0,0.0,457.0,1,0.37493686071025734
339,339,0.29895875372263214,0.3,0,446.0,873.0,0.0,101.0,1,0.4876893124705319
340,340,-0.4108856617038614,-0.4,1,469.0,639.0,1.0,312.0,1,0.44406621563325954
341,341,0.6584188551726651,0.7,0,252.0,751.0,0.0,397.0,1,0.3472005033837754
342,342,-0.43558487523918954,-0.4,1,402.0,678.0,1.0,270.0,1,0.4039409221149652
343,343,0.4842590659516923,0.5,0,343.0,634.0,0.0,563.0,1,0.46046217731544903
344,344,-0.7927853833777345,-0.8,1,357.0,688.0,1.0,305.0,1,0.4928192016537788
345,345,-0.9168943946507699,-0.9,1,297.0,516.0,1.0,227.0,1,0.3876439691168987
346,346,-0.657378770759421,-0.7,1,467.0,941.0,1.0,312.0,1,0.3731696918103398
347,347,0.23392379654083229,0.2,0,254.0,908.0,0.0,368.0,1,0.48326910660918704
348,348,-0.6606506527279232,-0.7,1,357.0,660.0,1.0,283.0,1,0.3286118048962455
349,349,0.20782242345686242,0.2,0,350.0,972.0,0.0,108.0,1,0.48213097722051934
350,350,0.31535733742859584,0.3,0,359.0,799.0,0.0,442.0,1,0.36794524606578777
351,351,0.45678038690521294,0.5,0,410.0,568.0,0.0,962.0,1,0.49325146343602355
352,352,0.5639725942646192,0.6,0,407.0,950.0,0.0,683.0,1,0.3854911082970385
353,353,0.3343156280971369,0.3,0,310.0,791.0,0.0,709.0,1,0.41889975860662165
354,354,-0.41116295355502386,-0.4,1,436.0,802.0,1.0,392.0,1,0.38763500510640986
355,355,0.6567050905832339,0.7,0,489.0,703.0,0.0,508.0,1,0.33452626007084674
356,356,0.40772473951549637,0.4,0,449.0,949.0,0.0,162.0,1,0.4825356409809901
357,357,0.6670553238692729,0.7,0,416.0,932.0,0.0,222.0,1,0.3798398621476873
358,358,0.20511089740999355,0.2,0,302.0,768.0,0.0,550.0,1,0.4813899256356402
359,359,-0.2426652664815785,-0.2,1,437.0,670.0,1.0,383.0,1,0.3041121786798053
360,360,-0.6533620778668072,-0.7,1,325.0,695.0,1.0,640.0,1,0.4675844211112392
361,361,-0.595886795995813,-0.6,1,475.0,644.0,1.0,271.0,1,0.40210180326204437
362,362,0.571620212325586,0.6,0,387.0,566.0,0.0,267.0,1,0.38494212949484014
363,363,0.6374307842376785,0.6,0,385.0,680.0,0.0,245.0,1,0.3544721983953477
364,364,-0.5092340728484226,-0.5,1,274.0,922.0,1.0,594.0,1,0.47605862028466134
365,365,-0.6355123139920382,-0.6,1,315.0,844.0,1.0,331.0,1,0.47213892882745356
366,366,-0.9476089387632216,-0.9,1,420.0,648.0,1.0,172.0,1,0.31173345331896035
367,367,-0.6068444046835941,-0.6,1,332.0,690.0,1.0,438.0,1,0.3079941010580169
368,368,-0.5161675564819082,-0.5,1,294.0,671.0,1.0,765.0,1,0.4775611898551302
369,369,0.8136327346637751,0.8,0,490.0,670.0,0.0,380.0,1,0.35399488563337095
370,370,0.9737141056865151,1.0,0,460.0,749.0,0.0,221.0,1,0.35526503733760273
371,371,-0.49343782283788395,-0.5,1,453.0,742.0,1.0,425.0,1,0.4496946278315104
372,372,0.23019137776267584,0.2,0,260.0,777.0,0.0,1103.0,1,0.4432646519516541
373,373,-0.5784579365360782,-0.6,1,304.0,726.0,1.0,440.0,1,0.41857328050455195
374,374,-0.16392215629289364,-0.2,1,449.0,576.0,1.0,565.0,1,0.36448249388606635
375,375,-0.15608850344487535,-0.2,1,393.0,875.0,0.0,252.0,0,0.3709583998358795
376,376,0.02456663943730586,0.0,0,313.0,506.0,0.0,181.0,1,0.4172208616079658
377,377,-0.4799939607264403,-0.5,1,348.0,773.0,1.0,169.0,1,0.46187051956790215
378,378,0.5860483988646754,0.6,0,354.0,767.0,0.0,499.0,1,0.42130697175617776
379,379,0.32694699579363573,0.3,0,305.0,715.0,0.0,410.0,1,0.3042714019313372
380,380,-0.27499229941154124,-0.3,1,268.0,952.0,1.0,560.0,1,0.4807164976649539
381,381,-0.9408247752778689,-0.9,1,477.0,500.0,1.0,313.0,1,0.4194370993751295
382,382,-0.07046490383582737,-0.1,1,466.0,971.0,1.0,1793.0,1,0.3876631935699245
383,383,0.08714973596679143,0.1,0,419.0,767.0,1.0,484.0,0,0.33081635398023096
384,384,-0.8479504335515058,-0.8,1,491.0,984.0,1.0,485.0,1,0.37226478236244814
385,385,-0.7874384584300489,-0.8,1,285.0,960.0,1.0,175.0,1,0.37760000191361454
386,386,0.9495099344428366,0.9,0,300.0,942.0,0.0,638.0,1,0.30541481860639874
387,387,-0.9136735493160093,-0.9,1,478.0,985.0,0.0,-533.0,0,0.49759628167985065
388,388,0.9402944649059435,0.9,0,365.0,628.0,0.0,157.0,1,0.35004758893320337
389,389,0.7216260345097161,0.7,0,439.0,739.0,0.0,782.0,1,0.37916350284964373
390,390,-0.12586321314823756,-0.1,1,478.0,771.0,1.0,371.0,1,0.4488741777841452
391,391,-0.7339130205628202,-0.7,1,306.0,888.0,1.0,266.0,1,0.3867545466332565
392,392,-0.9146308612323166,-0.9,1,304.0,627.0,1.0,469.0,1,0.3924518622254948
393,393,0.1452123550988147,0.1,0,396.0,578.0,0.0,326.0,1,0.32784094440848355
394,394,-0.03452269740833169,-0.0,1,480.0,825.0,0.0,425.0,0,0.4211843830624016
395,395,-0.4383186176012239,-0.4,1,425.0,609.0,1.0,596.0,1,0.36782201268670095
396,396,-0.6960198547098251,-0.7,1,473.0,630.0,1.0,387.0,1,0.49730134148686095
397,397,0.5191941513625324,0.5,0,467.0,867.0,0.0,316.0,1,0.43944969773608267
398,398,-0.7559672949482878,-0.8,1,289.0,826.0,1.0,355.0,1,0.4551127006045491
399,399,0.8757611503340401,0.9,0,469.0,524.0,0.0,257.0,1,0.3652684697100071
400,400,-0.4356457758546788,-0.4,1,269.0,771.0,1.0,440.0,1,0.4592503175766418
401,401,-0.9227829974696509,-0.9,1,432.0,607.0,1.0,281.0,1,0.40941652179844523
402,402,-0.2024224333211313,-0.2,1,393.0,570.0,1.0,1187.0,1,0.43611160922027903
403,403,0.35052245356295253,0.4,0,405.0,643.0,0.0,322.0,1,0.32065173349971443
404,404,0.5049035611836588,0.5,0,262.0,947.0,0.0,871.0,1,0.49915356419449475
405,405,-0.6657608622446936,-0.7,1,292.0,798.0,1.0,540.0,1,0.4122424598088013
406,406,-0.183302942986036,-0.2,1,316.0,663.0,1.0,571.0,1,0.34713611578416226
407,407,-0.3665067026440041,-0.4,1,307.0,667.0,1.0,576.0,1,0.42461466398259395
408,408,-0.2536700208809668,-0.3,1,321.0,782.0,1.0,507.0,1,0.3937753304544229
409,409,0.7586047085576986,0.8,0,315.0,977.0,0.0,128.0,1,0.44091866067426244
410,410,-0.5091090339559459,-0.5,1,341.0,825.0,1.0,394.0,1,0.3977198030859586
411,411,-0.9039347514267995,-0.9,1,324.0,856.0,1.0,390.0,1,0.42161488451149526
412,412,-0.3664931393853321,-0.4,1,369.0,600.0,1.0,571.0,1,0.45465288965780487
413,413,0.7163339487036167,0.7,0,326.0,998.0,0.0,326.0,1,0.4645434424008291
414,414,0.4744159447927798,0.5,0,312.0,649.0,0.0,429.0,1,0.4268585782698628
415,415,0.9697162878471159,1.0,0,334.0,609.0,0.0,117.0,1,0.4494216460242897
416,416,0.2015616243432754,0.2,0,492.0,890.0,0.0,508.0,1,0.42046923651522045
417,417,-0.8628532076285538,-0.9,1,325.0,776.0,1.0,159.0,1,0.33275858225990135
418,418,0.9196195375632461,0.9,0,273.0,528.0,0.0,489.0,1,0.4154886660834256
419,419,-0.2994518110349027,-0.3,1,392.0,540.0,1.0,828.0,1,0.37970024412510217
420,420,-0.41857087635218004,-0.4,1,308.0,539.0,1.0,593.0,1,0.3250510931825446
421,421,0.6309523448199257,0.6,0,296.0,743.0,0.0,121.0,1,0.33861972074137964
422,422,0.12672194992022012,0.1,0,425.0,813.0,0.0,572.0,1,0.36358438122280035
423,423,-0.441779661603406,-0.4,1,384.0,878.0,1.0,368.0,1,0.47012760628209566
424,424,-0.365854318379498,-0.4,1,261.0,667.0,1.0,552.0,1,0.4463582563887035
425,425,0.6407202882523475,0.6,0,357.0,650.0,0.0,383.0,1,0.335278784426692
426,426,0.6140832709742676,0.6,0,476.0,722.0,0.0,562.0,1,0.3804023445653804
427,427,-0.1413001425452891,-0.1,1,439.0,756.0,1.0,1345.0,1,0.37008843463330743
428,428,0.3232057015364693,0.3,0,370.0,714.0,0.0,476.0,1,0.4150635540656028
429,429,-0.29756136274233613,-0.3,1,468.0,633.0,1.0,419.0,1,0.42671274339499743
430,430,-0.4286588589682674,-0.4,1,327.0,649.0,1.0,614.0,1,0.303144660956758
431,431,0.9500734451471922,1.0,0,333.0,754.0,0.0,143.0,1,0.43946005314243014
432,432,0.348439453385339,0.3,0,352.0,585.0,0.0,463.0,1,0.39846578551121165
433,433,0.775746245969734,0.8,0,299.0,596.0,0.0,305.0,1,0.3484684357632176
434,434,0.5557868067612566,0.6,0,492.0,788.0,0.0,390.0,1,0.4558185001764796
435,435,-0.9912532226010902,-1.0,1,469.0,945.0,1.0,246.0,1,0.32784564916712977
436,436,0.6092916892900473,0.6,0,452.0,849.0,0.0,519.0,1,0.408031634621209
437,437,0.8661834514827254,0.9,0,451.0,571.0,0.0,228.0,1,0.3022713739147644
438,438,0.4751846313408319,0.5,0,358.0,733.0,0.0,839.0,1,0.4092102443194953
439,439,-0.7624098117058349,-0.8,1,277.0,764.0,1.0,249.0,1,0.49240165557020277
440,440,-0.2075791561159579,-0.2,1,452.0,858.0,1.0,900.0,1,0.49046461257932955
441,441,-0.3107234175953355,-0.3,1,267.0,898.0,1.0,365.0,1,0.4518138060307094
442,442,0.523475505038933,0.5,0,437.0,940.0,0.0,323.0,1,0.30302629746129334
443,443,0.1662377399857693,0.2,0,283.0,720.0,0.0,587.0,1,0.4952603203383172
444,444,0.7625174592733741,0.8,0,274.0,701.0,0.0,375.0,1,0.36747648146412043
445,445,0.5759842655625065,0.6,0,480.0,561.0,0.0,289.0,1,0.35710925829469276
446,446,-0.17533693153004637,-0.2,1,316.0,824.0,1.0,360.0,1,0.4882770441749471
447,447,0.8259599029462767,0.8,0,450.0,956.0,0.0,1064.0,1,0.3120861994523148
448,448,-0.43321623247834995,-0.4,1,335.0,997.0,1.0,378.0,1,0.41685846366717133
449,449,-0.060710670362232655,-0.1,1,321.0,601.0,1.0,698.0,1,0.4384969554100838
450,450,0.35915852266394355,0.4,0,316.0,950.0,0.0,384.0,1,0.47946777346750946
451,451,-0.3767307896038412,-0.4,1,445.0,517.0,1.0,378.0,1,0.3227548987275919
452,452,0.1712969377755249,0.2,0,484.0,878.0,0.0,1208.0,1,0.39797911225296134
453,453,-0.23945794837259804,-0.2,1,490.0,784.0,1.0,836.0,1,0.41980646297795415
454,454,0.337665709429382,0.3,0,268.0,962.0,0.0,1060.0,1,0.33108734885660146
455,455,-0.3808648862830899,-0.4,1,336.0,586.0,1.0,518.0,1,0.3725615736319813
456,456,-0.808552217590224,-0.8,1,399.0,845.0,1.0,296.0,1,0.4774555587930381
457,457,0.6848720542211493,0.7,0,440.0,634.0,0.0,436.0,1,0.42509021099084243
458,458,0.5694494480375343,0.6,0,278.0,562.0,0.0,660.0,1,0.3617204750520577
459,459,-0.6642669193532773,-0.7,1,438.0,670.0,1.0,542.0,1,0.37288192684198657
460,460,-0.5984671585429642,-0.6,1,310.0,823.0,1.0,557.0,1,0.4758464604103537
461,461,0.4615516960317474,0.5,0,465.0,860.0,0.0,1015.0,1,0.3630058816763524
462,462,0.826818530784136,0.8,0,260.0,540.0,0.0,210.0,1,0.4359996634480595
463,463,-0.4089178923550454,-0.4,1,314.0,791.0,1.0,875.0,1,0.4689545158967357
464,464,-0.7188406486757071,-0.7,1,282.0,617.0,1.0,291.0,1,0.39951933840184833
465,465,-0.9582117582651799,-1.0,1,311.0,675.0,1.0,194.0,1,0.4470899727764984
466,466,-0.42745041203555867,-0.4,1,325.0,920.0,1.0,325.0,1,0.4054924419694132
467,467,-0.1410263781058947,-0.1,1,272.0,787.0,0.0,1261.0,0,0.37280052951292725
468,468,0.4081606758950431,0.4,0,455.0,564.0,0.0,2191.0,1,0.3491907935812678
469,469,0.877996074063796,0.9,0,438.0,602.0,0.0,270.0,1,0.42886502526554054
470,470,-0.19460447844458528,-0.2,1,438.0,576.0,1.0,736.0,1,0.4979858063611812
471,471,0.2475973572818011,0.2,0,308.0,688.0,0.0,544.0,1,0.39232942980778157
472,472,0.4683133438585978,0.5,0,497.0,882.0,0.0,371.0,1,0.352458172750134
473,473,-0.9271760524077501,-0.9,1,400.0,917.0,1.0,323.0,1,0.43673048970779604
474,474,-0.28609729833547526,-0.3,1,455.0,891.0,1.0,1364.0,1,0.4294977020693813
475,475,-0.3152032826969038,-0.3,1,469.0,852.0,1.0,539.0,1,0.38321076706845675
476,476,-0.16533177466691007,-0.2,1,398.0,536.0,1.0,586.0,1,0.4998232631041359
477,477,-0.9102340943021929,-0.9,1,347.0,880.0,1.0,253.0,1,0.47464652917260325
478,478,-0.25368223165857207,-0.3,1,287.0,644.0,1.0,1499.0,1,0.44533456594087295
479,479,0.3107789818452704,0.3,0,275.0,828.0,0.0,287.0,1,0.39387545227990306
480,480,-0.40043550828422414,-0.4,1,331.0,691.0,1.0,208.0,1,0.4418472339856877
481,481,-0.37920137174930013,-0.4,1,292.0,648.0,1.0,610.0,1,0.3717254451841436
482,482,0.23997814793526473,0.2,0,421.0,987.0,0.0,3592.0,1,0.3696228039051473
483,483,-0.19358044789193274,-0.2,1,428.0,872.0,1.0,920.0,1,0.4196177500104433
484,484,0.4240458223887007,0.4,0,481.0,789.0,0.0,160.0,1,0.4369653789231487
485,485,0.7178690932062815,0.7,0,272.0,743.0,0.0,295.0,1,0.49813195128112203
486,486,0.24777457097323508,0.2,0,435.0,953.0,0.0,902.0,1,0.4257313990311956
487,487,-0.2820016148969451,-0.3,1,451.0,887.0,1.0,1482.0,1,0.33399153663287146
488,488,0.4537927154028458,0.5,0,412.0,788.0,0.0,540.0,1,0.38602026437414605
489,489,-0.933093543965603,-0.9,1,459.0,515.0,1.0,426.0,1,0.499515524951276
490,490,0.3156042484197277,0.3,0,308.0,712.0,0.0,280.0,1,0.38348869475118375
491,491,0.6257793213257681,0.6,0,325.0,661.0,0.0,854.0,1,0.3019390716666505
492,492,0.3757791843795828,0.4,0,491.0,869.0,0.0,210.0,1,0.39534021162366745
493,493,0.4282767859019707,0.4,0,495.0,981.0,0.0,124.0,1,0.4960922258603543
494,494,0.20784380386583545,0.2,0,295.0,806.0,0.0,799.0,1,0.40228883063840215
495,495,-0.7745800372013354,-0.8,1,476.0,547.0,1.0,337.0,1,0.47108433342292266
496,496,-0.9324063953556794,-0.9,1,272.0,602.0,1.0,246.0,1,0.35778579964715945
497,497,0.015197252752192636,0.0,0,370.0,699.0,0.0,2851.0,1,0.4804457265995163
498,498,0.8626137816713264,0.9,0,401.0,954.0,0.0,295.0,1,0.33781469170935374
499,499,0.7784203654433541,0.8,0,434.0,794.0,0.0,192.0,1,0.35683988198605854
500,500,-0.4739241603275317,-0.5,1,464.0,643.0,1.0,333.0,1,0.45106560852887545
501,501,0.7597048726224704,0.8,0,419.0,911.0,0.0,620.0,1,0.45415632152720176
502,502,0.6485455356484142,0.6,0,311.0,786.0,0.0,183.0,1,0.3479822778054614
503,503,0.04435746059989065,0.0,0,352.0,587.0,1.0,1611.0,0,0.41177703040092095
504,504,0.4728649749382121,0.5,0,356.0,692.0,0.0,612.0,1,0.30097327954067016
505,505,-0.776645579308525,-0.8,1,459.0,654.0,1.0,387.0,1,0.36295403405754123
506,506,-0.8398901941869075,-0.8,1,459.0,690.0,1.0,451.0,1,0.4107302837631532
507,507,-0.08229610215656069,-0.1,1,487.0,610.0,1.0,883.0,1,0.4128990573193611
508,508,0.7025084227458833,0.7,0,284.0,738.0,0.0,318.0,1,0.32313235580613053
509,509,-0.48369409586056356,-0.5,1,361.0,819.0,1.0,730.0,1,0.4831977576080312
510,510,-0.6711236254158719,-0.7,1,453.0,632.0,1.0,435.0,1,0.42696780872873086
511,511,-0.29016594342336477,-0.3,1,489.0,545.0,1.0,666.0,1,0.3292676340988259
512,512,0.30209441850447605,0.3,0,367.0,876.0,0.0,487.0,1,0.4562089662025454
513,513,0.37681442576427115,0.4,0,461.0,963.0,0.0,186.0,1,0.4296931300131981
514,514,-0.9147522562611177,-0.9,1,351.0,521.0,1.0,298.0,1,0.3797037740370585
515,515,-0.19796016187174081,-0.2,1,294.0,610.0,1.0,616.0,1,0.38476163341651193
516,516,-0.4574463601860217,-0.5,1,392.0,906.0,1.0,462.0,1,0.4108377263006652
517,517,0.1260061130535679,0.1,0,338.0,688.0,0.0,2414.0,1,0.46500068802179145
518,518,-0.8864835326899956,-0.9,1,370.0,610.0,1.0,200.0,1,0.4613866035367046
519,519,-0.6045154908809471,-0.6,1,386.0,678.0,1.0,496.0,1,0.3157108952115545
520,520,0.34718850149923686,0.3,0,410.0,828.0,0.0,1262.0,1,0.47745604017775306
521,521,-0.7867445053330941,-0.8,1,288.0,589.0,1.0,253.0,1,0.46268433600211
522,522,0.588430660577036,0.6,0,325.0,585.0,0.0,460.0,1,0.4738686646761492
523,523,0.8364067796378616,0.8,0,336.0,548.0,0.0,16.0,1,0.42670272948015664
524,524,0.36807481907629613,0.4,0,457.0,681.0,0.0,382.0,1,0.31738785417595905
525,525,-0.8106505841739522,-0.8,1,251.0,895.0,1.0,414.0,1,0.31720023609856696
526,526,0.6681319666251591,0.7,0,481.0,896.0,0.0,363.0,1,0.3824841994016006
527,527,-0.6812626111597189,-0.7,1,294.0,849.0,1.0,257.0,1,0.35664928216258596
528,528,-0.9451084600858033,-0.9,1,260.0,676.0,1.0,184.0,1,0.375738418849324
529,529,-0.48008573001093535,-0.5,1,266.0,892.0,1.0,312.0,1,0.3661078729714733
530,530,-0.17262059023382292,-0.2,1,264.0,741.0,1.0,595.0,1,0.38960955037421274
531,531,-0.2307399372455361,-0.2,1,305.0,983.0,1.0,1902.0,1,0.466599076375076
532,532,-0.6873863945584324,-0.7,1,352.0,956.0,1.0,302.0,1,0.419309676917473
533,533,-0.35461768615185973,-0.4,1,426.0,795.0,1.0,989.0,1,0.4176568466313881
534,534,-0.6494820021652121,-0.6,1,479.0,543.0,1.0,158.0,1,0.31309111404855156
535,535,0.8064948533167378,0.8,0,257.0,580.0,0.0,243.0,1,0.30237552415195107
536,536,-0.6250505821558392,-0.6,1,469.0,646.0,1.0,455.0,1,0.4768422117798727
537,537,0.29724746182912387,0.3,0,432.0,875.0,0.0,393.0,1,0.38675719008505943
538,538,0.0015838142530497645,0.0,0,436.0,981.0,1.0,1513.0,0,0.38979687915992434
539,539,0.9443873204372768,0.9,0,293.0,925.0,0.0,512.0,1,0.4374023240086335
540,540,0.7280989472536687,0.7,0,284.0,940.0,0.0,246.0,1,0.47952403839929103
541,541,-0.9652802423041846,-1.0,1,263.0,977.0,1.0,310.0,1,0.48925062152840937
542,542,0.4198357837443194,0.4,0,397.0,635.0,0.0,488.0,1,0.49404402331479036
543,543,-0.5338017628289211,-0.5,1,481.0,621.0,1.0,698.0,1,0.4762198553269307
544,544,-0.49809698523978785,-0.5,1,279.0,759.0,1.0,262.0,1,0.3349519565799611
545,545,0.7747759646988122,0.8,0,369.0,820.0,0.0,251.0,1,0.49737072503944807
546,546,-0.9559664210273804,-1.0,1,258.0,667.0,1.0,355.0,1,0.4366341914886648
547,547,0.6036360781693595,0.6,0,278.0,850.0,0.0,392.0,1,0.32950855164885506
548,548,0.3730078951176534,0.4,0,333.0,766.0,0.0,481.0,1,0.4804534988228716
549,549,-0.5413809206311488,-0.5,1,465.0,792.0,1.0,213.0,1,0.3622781918525702
550,550,0.14768484779353108,0.1,0,333.0,656.0,0.0,471.0,1,0.3324587655687611
551,551,0.659824187154394,0.7,0,281.0,671.0,0.0,298.0,1,0.30127864577070357
552,552,0.04542647789811327,0.0,0,382.0,682.0,0.0,966.0,1,0.4559786518554708
553,553,0.8668287758186277,0.9,0,266.0,851.0,0.0,253.0,1,0.30121860667540007
554,554,-0.6669669302573513,-0.7,1,288.0,986.0,1.0,316.0,1,0.4291782285285779
555,555,0.5194600470786777,0.5,0,493.0,758.0,0.0,459.0,1,0.428225374156557
556,556,0.5929432598877711,0.6,0,432.0,732.0,0.0,226.0,1,0.4871548908632663
557,557,-0.10281075936760509,-0.1,1,255.0,583.0,1.0,502.0,1,0.3134011373180616
558,558,0.5672909434832336,0.6,0,336.0,717.0,0.0,337.0,1,0.4575215549892124
559,559,-0.12956127027175568,-0.1,1,372.0,837.0,1.0,691.0,1,0.32835779893658884
560,560,-0.9354838284061748,-0.9,1,484.0,880.0,1.0,376.0,1,0.30965894433819163
561,561,0.4097177492793871,0.4,0,446.0,956.0,0.0,348.0,1,0.3896228250886191
562,562,0.8710225121298207,0.9,0,266.0,506.0,0.0,138.0,1,0.4339176231659124
563,563,0.8393201934156995,0.8,0,491.0,999.0,0.0,-1010.0,1,0.49789006485809084
564,564,0.7052351478581917,0.7,0,379.0,849.0,0.0,282.0,1,0.4023329490104768
565,565,0.9406337476250235,0.9,0,342.0,571.0,0.0,377.0,1,0.3093012858815852
566,566,0.31464449467202726,0.3,0,456.0,896.0,0.0,2538.0,1,0.46982209355510884
567,567,-0.5133533151422442,-0.5,1,299.0,602.0,1.0,579.0,1,0.47871872451088227
568,568,0.49665891021565933,0.5,0,388.0,982.0,0.0,710.0,1,0.4450346256044628
569,569,-0.04529040222914227,-0.0,1,312.0,617.0,1.0,271.0,1,0.4022452152519186
570,570,-0.6781217254050858,-0.7,1,428.0,582.0,1.0,260.0,1,0.4302720491166981
571,571,-0.9057569469790936,-0.9,1,398.0,622.0,1.0,250.0,1,0.432625089047615
572,572,0.02708131142322512,0.0,0,321.0,716.0,1.0,2213.0,0,0.37294001234269203
573,573,0.5027201396677605,0.5,0,494.0,774.0,0.0,1092.0,1,0.42495779283457874
574,574,-0.6645263175926079,-0.7,1,463.0,991.0,1.0,226.0,1,0.4490323840837571
575,575,-0.5509778929115394,-0.6,1,271.0,875.0,1.0,404.0,1,0.45875404932245545
576,576,-0.3196722061010917,-0.3,1,296.0,619.0,1.0,225.0,1,0.4789472810547884
577,577,-0.9277389566827179,-0.9,1,383.0,730.0,1.0,387.0,1,0.3665399433433684
578,578,0.7513870803383986,0.8,0,366.0,678.0,0.0,346.0,1,0.4273454386529079
579,579,-0.9751458316176391,-1.0,1,454.0,652.0,1.0,184.0,1,0.30289342837007843
580,580,-0.4579707828972859,-0.5,1,337.0,741.0,1.0,622.0,1,0.41472675624584904
581,581,-0.16698990367673572,-0.2,1,488.0,857.0,1.0,555.0,1,0.3852536537624135
582,582,0.9567609736648626,1.0,0,387.0,828.0,0.0,65.0,1,0.4668809258459915
583,583,0.06887003193967556,0.1,0,425.0,687.0,1.0,1488.0,0,0.49272834580174474
584,584,0.40757142824656833,0.4,0,463.0,679.0,0.0,168.0,1,0.3745276856513463
585,585,-0.0387213209769488,-0.0,1,423.0,845.0,1.0,482.0,1,0.3631573337217198
586,586,-0.3564352647687383,-0.4,1,485.0,960.0,1.0,625.0,1,0.44021589120220395
587,587,-0.7946884593994468,-0.8,1,418.0,927.0,1.0,285.0,1,0.46848909145875717
588,588,0.2998947079587513,0.3,0,254.0,705.0,0.0,631.0,1,0.32335814242978683
589,589,-0.49273878952891326,-0.5,1,295.0,783.0,1.0,572.0,1,0.3948425760513529
590,590,0.6948694008433103,0.7,0,367.0,799.0,0.0,424.0,1,0.3957738024193918
591,591,-0.622354737343743,-0.6,1,445.0,594.0,1.0,241.0,1,0.4048703380914261
592,592,-0.3066139356463131,-0.3,1,483.0,558.0,1.0,539.0,1,0.3177806645255609
593,593,0.06423234469909911,0.1,0,382.0,801.0,0.0,827.0,1,0.4091520479234698
594,594,-0.7102464969472473,-0.7,1,353.0,698.0,1.0,249.0,1,0.325693706241146
595,595,0.40652978009151375,0.4,0,290.0,899.0,0.0,111.0,1,0.3403810928722325
596,596,-0.24070664436791067,-0.2,1,485.0,959.0,1.0,306.0,1,0.4217239247076774
597,597,0.9930671103016953,1.0,0,260.0,575.0,0.0,175.0,1,0.4792396194302782
598,598,0.2724004713715811,0.3,0,314.0,669.0,0.0,1307.0,1,0.4899046826583007
599,599,-0.9729816894272865,-1.0,1,370.0,609.0,1.0,331.0,1,0.45840683871309307
600,600,0.36128711775489464,0.4,0,455.0,974.0,0.0,701.0,1,0.4280952989565988
601,601,0.3324951164100345,0.3,0,475.0,698.0,0.0,1637.0,1,0.33606877800731955
602,602,-0.2205439121462005,-0.2,1,384.0,673.0,1.0,2873.0,1,0.3435699030409213
603,603,-0.6776129347477233,-0.7,1,405.0,998.0,1.0,277.0,1,0.3529135218169481
604,604,0.008819221710068659,0.0,0,487.0,513.0,0.0,2410.0,1,0.3496525711549841
605,605,0.5638991122032304,0.6,0,353.0,816.0,0.0,271.0,1,0.49394829285496666
606,606,0.3062536340487729,0.3,0,303.0,727.0,0.0,430.0,1,0.4741050452817765
607,607,-0.6427050702588479,-0.6,1,429.0,502.0,1.0,479.0,1,0.41942636030531916
608,608,-0.681723447013932,-0.7,1,452.0,533.0,0.0,-425.0,0,0.4643974138094802
609,609,-0.49404703688505247,-0.5,1,472.0,620.0,1.0,228.0,1,0.45788222118132976
610,610,0.004144326897681738,0.0,0,412.0,673.0,0.0,1875.0,1,0.3195340735660875
611,611,0.7413061745941372,0.7,0,281.0,853.0,0.0,196.0,1,0.3879066171761149
612,612,0.7232531873514709,0.7,0,483.0,521.0,0.0,456.0,1,0.33401969072381527
613,613,0.21579434296474642,0.2,0,256.0,962.0,0.0,322.0,1,0.4699725247739378
614,614,-0.9897093081683461,-1.0,1,497.0,598.0,1.0,205.0,1,0.3584404286132021
615,615,-0.07371149631254714,-0.1,1,442.0,710.0,1.0,1298.0,1,0.4328813146468471
616,616,-0.47280950069403316,-0.5,1,303.0,781.0,1.0,906.0,1,0.3321704961904957
617,617,-0.09871082192444702,-0.1,1,305.0,547.0,1.0,968.0,1,0.3210391455268111
618,618,0.7771689412676279,0.8,0,492.0,668.0,0.0,330.0,1,0.45070769708668074
619,619,-0.35419226722630004,-0.4,1,435.0,717.0,1.0,838.0,1,0.4307248639107105
620,620,-0.15350576376018088,-0.2,1,489.0,661.0,0.0,220.0,0,0.4027645756691254
621,621,-0.5008625503540054,-0.5,1,265.0,949.0,1.0,266.0,1,0.3219902864141956
622,622,0.2042209944574953,0.2,0,340.0,951.0,0.0,859.0,1,0.4142447053389141
623,623,-0.9689931808354524,-1.0,1,412.0,686.0,1.0,272.0,1,0.3731127067794916
624,624,-0.3007991288712366,-0.3,1,497.0,600.0,0.0,-527.0,0,0.43442030014333133
625,625,0.13804346498790032,0.1,0,424.0,977.0,0.0,799.0,1,0.40379396750980956
626,626,-0.7426619922951152,-0.7,1,472.0,755.0,1.0,223.0,1,0.47100139047742295
627,627,0.015245615934147416,0.0,0,335.0,597.0,1.0,588.0,0,0.46223216217587143
628,628,0.12063333208876381,0.1,0,409.0,921.0,0.0,-360.0,1,0.4393018047103575
629,629,-0.8279955806007684,-0.8,1,486.0,531.0,1.0,233.0,1,0.3971731330109917
630,630,0.40720957239271494,0.4,0,388.0,901.0,0.0,551.0,1,0.41812999170525567
631,631,-0.534387895704872,-0.5,1,260.0,680.0,1.0,460.0,1,0.39943254327088296
632,632,-0.5900248389443548,-0.6,1,320.0,819.0,1.0,441.0,1,0.35057524292110875
633,633,0.34358745298898574,0.3,0,462.0,660.0,0.0,278.0,1,0.4013579475794292
634,634,-0.9561102905723711,-1.0,1,469.0,884.0,1.0,207.0,1,0.46067792596811963
635,635,0.5457101266988518,0.5,0,348.0,578.0,0.0,294.0,1,0.484281461213598
636,636,-0.2685978996531848,-0.3,1,462.0,622.0,1.0,186.0,1,0.39835796461662687
637,637,-0.3557788931956296,-0.4,1,396.0,617.0,1.0,437.0,1,0.4107760635407016
638,638,0.8553081376416767,0.9,0,261.0,782.0,0.0,347.0,1,0.3618350160867637
639,639,0.12946610139853187,0.1,0,497.0,550.0,0.0,513.0,1,0.4864718994482106
640,640,-0.7070479871537392,-0.7,1,460.0,522.0,1.0,298.0,1,0.4795438007555771
641,641,-0.45972402687457836,-0.5,1,489.0,638.0,1.0,353.0,1,0.4128019399557287
642,642,0.5148598949530552,0.5,0,472.0,955.0,0.0,593.0,1,0.338884907416404
643,643,-0.20724810652462278,-0.2,1,347.0,532.0,1.0,1101.0,1,0.40801996631747584
644,644,-0.2874971348764135,-0.3,1,340.0,533.0,1.0,1737.0,1,0.3607079562442201
645,645,0.4925085686042805,0.5,0,348.0,632.0,0.0,200.0,1,0.3751279517666015
646,646,0.8682177199178718,0.9,0,465.0,974.0,0.0,341.0,1,0.37668375940237586
647,647,-0.04459482831804773,-0.0,1,315.0,841.0,1.0,714.0,1,0.30837904415827605
648,648,0.3822915874648962,0.4,0,474.0,711.0,0.0,505.0,1,0.4689110002420681
649,649,-0.9504545057836649,-1.0,1,266.0,599.0,1.0,245.0,1,0.3320035402947368
650,650,0.199861677971378,0.2,0,388.0,656.0,0.0,636.0,1,0.445135155981669
651,651,-0.6201050402215968,-0.6,1,470.0,906.0,1.0,254.0,1,0.45283101064700926
652,652,0.9668383255825403,1.0,0,366.0,685.0,0.0,149.0,1,0.36397432502116217
653,653,0.18659318106751344,0.2,0,300.0,832.0,0.0,568.0,1,0.4078561284637692
654,654,0.4827700614540016,0.5,0,311.0,668.0,0.0,541.0,1,0.37013251377669887
655,655,0.4653742606490352,0.5,0,279.0,691.0,0.0,520.0,1,0.40355898824188313
656,656,0.2230513831119314,0.2,0,464.0,643.0,0.0,303.0,1,0.3790175804332607
657,657,-0.6882678184184123,-0.7,1,451.0,830.0,1.0,299.0,1,0.3178106096748868
658,658,-0.6293619640837091,-0.6,1,353.0,714.0,1.0,513.0,1,0.4130161347691541
659,659,-0.29070741936533695,-0.3,1,380.0,622.0,1.0,298.0,1,0.4186149754806453
660,660,0.7401612550731465,0.7,0,496.0,930.0,0.0,264.0,1,0.4517065100754044
661,661,-0.42748240986340735,-0.4,1,360.0,813.0,1.0,507.0,1,0.4456138708334935
662,662,0.7514438374046151,0.8,0,403.0,705.0,0.0,252.0,1,0.36678165865073925
663,663,0.44281821108863184,0.4,0,420.0,935.0,0.0,1035.0,1,0.3142759551176828
664,664,0.032906228541434546,0.0,0,431.0,944.0,0.0,2225.0,1,0.3118674076345401
665,665,-0.6668187053933323,-0.7,1,337.0,903.0,1.0,290.0,1,0.3754765301965343
666,666,-0.049262087819681666,-0.0,1,295.0,945.0,1.0,2180.0,1,0.3178946097973309
667,667,-0.8302282498129707,-0.8,1,357.0,562.0,1.0,311.0,1,0.42045577034646564
668,668,-0.14821031028132903,-0.1,1,345.0,850.0,1.0,725.0,1,0.3159523074508514
669,669,-0.6709311600276597,-0.7,1,486.0,964.0,1.0,350.0,1,0.3337589260271468
670,670,0.9346819403126334,0.9,0,445.0,754.0,0.0,181.0,1,0.3519358210250101
671,671,-0.19714681741199835,-0.2,1,460.0,770.0,1.0,720.0,1,0.45318120421067243
672,672,0.28035755407422713,0.3,0,437.0,946.0,0.0,497.0,1,0.47254784930270627
673,673,0.8451302843456923,0.8,0,254.0,550.0,0.0,266.0,1,0.4670476279040402
674,674,-0.8310412607129851,-0.8,1,439.0,696.0,1.0,345.0,1,0.4121024877466779
675,675,0.42072021252520964,0.4,0,464.0,524.0,0.0,2312.0,1,0.4065455977589171
676,676,0.8146298318063661,0.8,0,253.0,630.0,0.0,77.0,1,0.40956645559893134
677,677,-0.3771120874564813,-0.4,1,329.0,698.0,1.0,343.0,1,0.38182908757837286
678,678,0.5311911673060841,0.5,0,393.0,591.0,0.0,966.0,1,0.35158844955887913
679,679,0.29202515460043155,0.3,0,468.0,735.0,0.0,797.0,1,0.30496204723476883
680,680,0.7155940696518808,0.7,0,274.0,870.0,0.0,226.0,1,0.44132863410331435
681,681,-0.8612711186140822,-0.9,1,466.0,728.0,1.0,186.0,1,0.3931444544657281
682,682,-0.6908724991614141,-0.7,1,486.0,728.0,1.0,396.0,1,0.33651540951733533
683,683,0.9830198348706776,1.0,0,419.0,889.0,0.0,252.0,1,0.31567149430273567
684,684,-0.71732070773407,-0.7,1,421.0,980.0,1.0,409.0,1,0.3150466714990428
685,685,0.5713427420629995,0.6,0,372.0,560.0,0.0,938.0,1,0.34573717161148765
686,686,0.3559653382008383,0.4,0,409.0,989.0,0.0,422.0,1,0.3358709124124121
687,687,-0.5601559858005105,-0.6,1,426.0,783.0,1.0,571.0,1,0.4120374499866961
688,688,0.09390054240438195,0.1,0,413.0,613.0,0.0,1544.0,1,0.39469025096582827
689,689,-0.575203739173461,-0.6,1,346.0,815.0,1.0,339.0,1,0.30025770022814324
690,690,0.017139548235704627,0.0,0,494.0,600.0,0.0,196.0,1,0.4959304542492407
691,691,-0.33986396039096656,-0.3,1,399.0,954.0,1.0,667.0,1,0.39757585854876853
692,692,0.9777299913911937,1.0,0,310.0,772.0,0.0,158.0,1,0.3028593458355048
693,693,0.13206560805096945,0.1,0,462.0,907.0,1.0,591.0,0,0.39237183147319893
694,694,0.2758522472763354,0.3,0,332.0,735.0,0.0,243.0,1,0.43871075413318583
695,695,-0.30134258807106784,-0.3,1,421.0,700.0,1.0,379.0,1,0.34970625764251184
696,696,-0.38202703500844715,-0.4,1,284.0,820.0,1.0,606.0,1,0.4440519693831606
697,697,-0.3161569049872275,-0.3,1,354.0,713.0,1.0,393.0,1,0.411518537559829
698,698,0.7743233798469973,0.8,0,268.0,976.0,0.0,816.0,1,0.3323818593569683
699,699,-0.7745037013933833,-0.8,1,267.0,528.0,1.0,375.0,1,0.4106264211360583
700,700,-0.7474509170673924,-0.7,1,476.0,775.0,1.0,279.0,1,0.39695132687706347
701,701,-0.8089867697177271,-0.8,1,251.0,520.0,1.0,219.0,1,0.4568269047296594
702,702,-0.19194685601398986,-0.2,1,491.0,672.0,0.0,317.0,0,0.3945007797678707
703,703,0.05933627719422252,0.1,0,359.0,578.0,0.0,1123.0,1,0.4351768454565674
704,704,-0.7959571889918293,-0.8,1,468.0,841.0,0.0,-319.0,0,0.4950201138345342
705,705,-0.740228250607297,-0.7,1,251.0,750.0,1.0,219.0,1,0.45741179394987946
706,706,0.8169258701971427,0.8,0,316.0,862.0,0.0,362.0,1,0.30731457305312176
707,707,-0.3173094970024193,-0.3,1,391.0,977.0,1.0,1272.0,1,0.31965746625407293
708,708,-0.07230052032843615,-0.1,1,322.0,978.0,1.0,790.0,1,0.3006197095726969
709,709,0.16294971864068164,0.2,0,386.0,557.0,0.0,147.0,1,0.48027579781907576
710,710,0.016010485645722827,0.0,0,366.0,862.0,1.0,932.0,0,0.36917326807831935
711,711,0.694682431993622,0.7,0,250.0,670.0,0.0,550.0,1,0.35188377610588606
712,712,0.5596060219956298,0.6,0,333.0,813.0,0.0,944.0,1,0.46679288438636113
713,713,-0.5184027448855351,-0.5,1,299.0,668.0,1.0,663.0,1,0.3434506243138289
714,714,0.5678482561571276,0.6,0,316.0,955.0,0.0,509.0,1,0.42456437229706523
715,715,-0.4102839352307721,-0.4,1,479.0,607.0,1.0,434.0,1,0.46042503440033583
716,716,-0.5408935233801488,-0.5,1,376.0,716.0,1.0,258.0,1,0.39444055150394375
717,717,-0.28471588442216067,-0.3,1,455.0,664.0,1.0,631.0,1,0.41402054509454495
718,718,-0.6997170776976911,-0.7,1,494.0,662.0,1.0,334.0,1,0.3232232666763964
719,719,-0.9605453486062141,-1.0,1,319.0,714.0,1.0,297.0,1,0.43121071869203303
720,720,-0.5246915841324848,-0.5,1,427.0,856.0,1.0,267.0,1,0.3580143027077503
721,721,0.8397681648145803,0.8,0,376.0,816.0,0.0,668.0,1,0.30711833191923543
722,722,0.08614386748625225,0.1,0,345.0,902.0,1.0,963.0,0,0.47064443979875314
723,723,0.15331088542236349,0.2,0,406.0,883.0,0.0,1291.0,1,0.46665609682600595
724,724,0.7396908939027551,0.7,0,372.0,895.0,0.0,603.0,1,0.4604213240503029
725,725,0.7952884979837964,0.8,0,350.0,706.0,0.0,594.0,1,0.4820642034928851
726,726,-0.7368333748688531,-0.7,1,330.0,798.0,1.0,222.0,1,0.3053086722310832
727,727,-0.9200340762441457,-0.9,1,407.0,829.0,1.0,294.0,1,0.49314442098566513
728,728,-0.6585942971916816,-0.7,1,375.0,751.0,1.0,274.0,1,0.3073419270645836
729,729,-0.8283327728741476,-0.8,1,448.0,791.0,1.0,311.0,1,0.36024333967454203
730,730,-0.7936037962414835,-0.8,1,323.0,764.0,1.0,163.0,1,0.3877360526000853
731,731,-0.9795424870666498,-1.0,1,496.0,778.0,1.0,236.0,1,0.47455730491189196
732,732,0.20631616234408434,0.2,0,283.0,854.0,0.0,2033.0,1,0.3798107237917773
733,733,0.5599903216018718,0.6,0,318.0,806.0,0.0,736.0,1,0.336578310149883
734,734,-0.7350251044465745,-0.7,1,495.0,675.0,1.0,220.0,1,0.46525596402767094
735,735,-0.5352156476688121,-0.5,1,267.0,644.0,1.0,499.0,1,0.43206206269441927
736,736,-0.8567622646505695,-0.9,1,303.0,931.0,1.0,216.0,1,0.34478834127075964
737,737,-0.8424904370668445,-0.8,1,371.0,812.0,1.0,527.0,1,0.42011419962253005
738,738,0.4920403401124882,0.5,0,295.0,525.0,0.0,360.0,1,0.36520488021488917
739,739,-0.5076841865835495,-0.5,1,315.0,558.0,1.0,327.0,1,0.4909951344854325
740,740,0.7887980791175642,0.8,0,481.0,738.0,0.0,341.0,1,0.34846943373776984
741,741,0.07688280395435076,0.1,0,287.0,734.0,0.0,1399.0,1,0.4379837648315148
742,742,0.9641526675397585,1.0,0,309.0,801.0,0.0,400.0,1,0.4555919429780998
743,743,-0.7020390282284066,-0.7,1,259.0,631.0,1.0,300.0,1,0.4135626720595241
744,744,-0.22230942551559907,-0.2,1,446.0,827.0,1.0,327.0,1,0.3243223077458097
745,745,0.6562164953570604,0.7,0,278.0,642.0,0.0,550.0,1,0.4269133929114546
746,746,-0.7717425673247194,-0.8,1,499.0,666.0,1.0,455.0,1,0.4766033106198255
747,747,0.5545666831592371,0.6,0,342.0,541.0,0.0,337.0,1,0.3167592669826938
748,748,0.498508838819806,0.5,0,444.0,670.0,0.0,246.0,1,0.41649456111853983
749,749,0.1711470792865939,0.2,0,354.0,990.0,1.0,306.0,0,0.3284721942746297
750,750,-0.5549567739023584,-0.6,1,312.0,778.0,1.0,220.0,1,0.30373315682741153
751,751,0.0424811842543793,0.0,0,420.0,990.0,1.0,910.0,0,0.3723504276219357
752,752,0.5539985687165847,0.6,0,353.0,919.0,0.0,118.0,1,0.4930502638177095
753,753,-0.5775756239541914,-0.6,1,325.0,668.0,1.0,197.0,1,0.44738951184680475
754,754,-0.7996629010411236,-0.8,1,458.0,544.0,1.0,338.0,1,0.31280759401502295
755,755,-0.7580203962111758,-0.8,1,326.0,670.0,1.0,624.0,1,0.4605282257972156
756,756,0.3749433402317237,0.4,0,318.0,813.0,0.0,499.0,1,0.3003495236788539
757,757,0.39705135415313464,0.4,0,331.0,633.0,0.0,186.0,1,0.4290871461151632
758,758,-0.5765153540557912,-0.6,1,377.0,581.0,1.0,482.0,1,0.39399213288400775
759,759,-0.14667910790223004,-0.1,1,279.0,575.0,1.0,566.0,1,0.4951894208296421
760,760,-0.09030720432829176,-0.1,1,369.0,952.0,1.0,1159.0,1,0.355891373879785
761,761,0.9101667114358241,0.9,0,257.0,666.0,0.0,307.0,1,0.34616180958133946
762,762,0.2840256264915373,0.3,0,489.0,748.0,0.0,843.0,1,0.4391054641729464
763,763,0.2871611102291507,0.3,0,364.0,772.0,0.0,984.0,1,0.42040527719120135
764,764,0.9822929196682844,1.0,0,419.0,883.0,0.0,108.0,1,0.45795642840218553
765,765,0.4800943992336253,0.5,0,416.0,609.0,0.0,395.0,1,0.3007336623821602
766,766,-0.369777545603565,-0.4,1,486.0,545.0,1.0,439.0,1,0.3298553850409487
767,767,-0.4407628333239375,-0.4,1,344.0,611.0,1.0,585.0,1,0.4036608778204416
768,768,-0.22409656957350554,-0.2,1,300.0,515.0,1.0,245.0,1,0.3401031315743207
769,769,-0.3887006367157886,-0.4,1,477.0,882.0,1.0,311.0,1,0.3936751725116011
770,770,0.08324777447351961,0.1,0,449.0,719.0,0.0,1542.0,1,0.3097930921756389
771,771,0.3483547941420746,0.3,0,346.0,613.0,0.0,321.0,1,0.4094269539690028
772,772,-0.6940934958262719,-0.7,1,432.0,816.0,1.0,522.0,1,0.432545854065982
773,773,-0.23734437514092677,-0.2,1,294.0,917.0,1.0,399.0,1,0.38715501364747923
774,774,0.547072812927319,0.5,0,370.0,676.0,0.0,804.0,1,0.388430777951035
775,775,0.7651889962289011,0.8,0,408.0,784.0,0.0,948.0,1,0.4458568207863781
776,776,-0.7108962293766212,-0.7,1,302.0,882.0,1.0,296.0,1,0.43219478192807204
777,777,-0.9565028026134612,-1.0,1,405.0,824.0,1.0,371.0,1,0.49975719153454645
778,778,0.7834679390016035,0.8,0,475.0,529.0,0.0,426.0,1,0.4303749584282258
779,779,-0.4322602425840334,-0.4,1,458.0,789.0,1.0,293.0,1,0.4807879968219513
780,780,0.14059884765371167,0.1,0,395.0,702.0,1.0,323.0,0,0.3010759018882741
781,781,-0.4582016648901899,-0.5,1,361.0,734.0,1.0,265.0,1,0.4162385091516917
782,782,-0.1862850053131071,-0.2,1,474.0,537.0,1.0,359.0,1,0.4790743497119515
783,783,-0.6975239497759869,-0.7,1,332.0,519.0,1.0,289.0,1,0.33007376099978003
784,784,0.9093654842425569,0.9,0,422.0,865.0,0.0,563.0,1,0.484518912856446
785,785,-0.8780013243665652,-0.9,1,335.0,868.0,1.0,337.0,1,0.41069902344000275
786,786,-0.7015596393174037,-0.7,1,469.0,948.0,1.0,423.0,1,0.40598431787703454
787,787,0.4412298614129686,0.4,0,283.0,533.0,0.0,824.0,1,0.31618496971706306
788,788,0.4149898951039446,0.4,0,254.0,965.0,0.0,401.0,1,0.48883328437520024
789,789,0.7500695856052084,0.8,0,302.0,804.0,0.0,234.0,1,0.3714133913813165
790,790,0.22709208250711765,0.2,0,307.0,552.0,0.0,461.0,1,0.38941618020360536
791,791,0.5173052366168445,0.5,0,373.0,799.0,0.0,748.0,1,0.451920013027705
792,792,-0.09854017539004678,-0.1,1,258.0,929.0,1.0,1293.0,1,0.49306039052284645
793,793,0.982350771588391,1.0,0,472.0,786.0,0.0,312.0,1,0.3816472766754194
794,794,-0.32705455278210316,-0.3,1,251.0,775.0,1.0,314.0,1,0.3777487047275651
795,795,-0.7160143078027525,-0.7,1,384.0,989.0,1.0,237.0,1,0.4761538229175247
796,796,0.17736272018677868,0.2,0,374.0,765.0,0.0,1221.0,1,0.48773484791045796
797,797,0.9547828296967611,1.0,0,494.0,533.0,0.0,273.0,1,0.46389405756609675
798,798,0.5659071108619387,0.6,0,362.0,511.0,0.0,387.0,1,0.30854003151822523
799,799,0.09282373712319436,0.1,0,338.0,595.0,0.0,727.0,1,0.45645145663141223
800,800,-0.8380544237620444,-0.8,1,328.0,611.0,1.0,381.0,1,0.4886997400963648
801,801,0.21469134488328434,0.2,0,437.0,542.0,0.0,1801.0,1,0.4491199358604925
802,802,-0.15887052523757617,-0.2,1,299.0,948.0,1.0,733.0,1,0.44736655282721727
803,803,0.15379866242152462,0.2,0,251.0,735.0,0.0,1034.0,1,0.32668196340605843
804,804,-0.19664913084798497,-0.2,1,397.0,830.0,1.0,543.0,1,0.4949303938147706
805,805,-0.7521311852540704,-0.8,1,254.0,819.0,1.0,217.0,1,0.4440463076591018
806,806,-0.8145788510670604,-0.8,1,280.0,787.0,1.0,353.0,1,0.3569617137338789
807,807,-0.7028042998596289,-0.7,1,345.0,525.0,1.0,280.0,1,0.4358120877617705
808,808,0.28063827177953193,0.3,0,377.0,613.0,0.0,460.0,1,0.4835484757483839
809,809,0.4778847961586852,0.5,0,441.0,687.0,0.0,552.0,1,0.4180818260325346
810,810,-0.7762748980411383,-0.8,1,480.0,681.0,1.0,419.0,1,0.3472334064645354
811,811,0.1878930188249901,0.2,0,260.0,664.0,0.0,1536.0,1,0.3742246565551228
812,812,-0.7158188381503605,-0.7,1,312.0,684.0,1.0,384.0,1,0.36415504652872704
813,813,-0.5154744069389863,-0.5,1,308.0,968.0,1.0,924.0,1,0.38983877980004283
814,814,-0.6854444132820261,-0.7,1,419.0,500.0,1.0,311.0,1,0.36052156895808146
815,815,-0.16091117322408932,-0.2,1,462.0,736.0,1.0,1302.0,1,0.3285961991340189
816,816,-0.7091949668428958,-0.7,1,484.0,986.0,1.0,350.0,1,0.3058660625775163
817,817,0.22742835747220824,0.2,0,398.0,578.0,0.0,304.0,1,0.37811478132860854
818,818,-0.20530775035809312,-0.2,1,416.0,685.0,1.0,1209.0,1,0.4637546917387523
819,819,0.32557568890832145,0.3,0,427.0,874.0,0.0,769.0,1,0.4154773107385453
820,820,0.3262344340283625,0.3,0,487.0,827.0,0.0,526.0,1,0.472615282678386
821,821,0.7352948152724057,0.7,0,431.0,770.0,0.0,349.0,1,0.4897040567151714
822,822,-0.8070905236428416,-0.8,1,382.0,751.0,1.0,287.0,1,0.4788528378809644
823,823,0.7526218111915695,0.8,0,270.0,766.0,0.0,654.0,1,0.4548474258770237
824,824,-0.19506634947299517,-0.2,1,326.0,934.0,1.0,1690.0,1,0.49995447525378167
825,825,-0.0785846153235148,-0.1,1,343.0,732.0,0.0,115.0,0,0.37583117125178506
826,826,0.9542197934848151,1.0,0,340.0,985.0,0.0,495.0,1,0.3897493944542662
827,827,0.7705243848558361,0.8,0,258.0,604.0,0.0,258.0,1,0.4442413127672593
828,828,-0.11846633808255858,-0.1,1,400.0,804.0,1.0,656.0,1,0.4326993554114583
829,829,0.8711698464317343,0.9,0,420.0,660.0,0.0,300.0,1,0.3691609981067357
830,830,-0.29520425398524,-0.3,1,489.0,718.0,1.0,603.0,1,0.3424957263855669
831,831,-0.23537779440870676,-0.2,1,373.0,707.0,1.0,900.0,1,0.47454314082311366
832,832,-0.4773125793117132,-0.5,1,466.0,637.0,1.0,167.0,1,0.3184117505698401
833,833,-0.7998881530382544,-0.8,1,295.0,677.0,1.0,318.0,1,0.35118090454127604
834,834,-0.011368447507920765,-0.0,1,490.0,986.0,1.0,534.0,1,0.4693002202179032
835,835,-0.46813226703215505,-0.5,1,431.0,787.0,1.0,842.0,1,0.428153142167856
836,836,0.003039474141893983,0.0,0,281.0,519.0,0.0,1920.0,1,0.3691583200610964
837,837,0.9226150614155282,0.9,0,346.0,966.0,0.0,298.0,1,0.3883470630383952
838,838,-0.6980062982842488,-0.7,1,392.0,826.0,1.0,262.0,1,0.33895445052043915
839,839,0.2836485356664844,0.3,0,376.0,747.0,0.0,187.0,1,0.4839438335934939
840,840,-0.032165346743111556,-0.0,1,404.0,654.0,1.0,1692.0,1,0.3032551236939179
841,841,-0.8348479210908621,-0.8,1,371.0,965.0,1.0,194.0,1,0.43643957139221334
842,842,-0.4482848392253598,-0.4,1,305.0,559.0,1.0,336.0,1,0.3955839020334686
843,843,-0.21798306504164255,-0.2,1,264.0,516.0,1.0,890.0,1,0.34039488512071536
844,844,-0.8701899462334977,-0.9,1,369.0,970.0,1.0,401.0,1,0.4521232955271782
845,845,0.3185713646013,0.3,0,289.0,847.0,0.0,1134.0,1,0.32481683797432453
846,846,0.35388374901757214,0.4,0,419.0,739.0,0.0,462.0,1,0.4791931905057516
847,847,-0.12970815795950896,-0.1,1,458.0,596.0,1.0,776.0,1,0.3014239939791818
848,848,0.2633227647964229,0.3,0,294.0,864.0,0.0,412.0,1,0.4634028563175381
849,849,0.17496301308329754,0.2,0,453.0,569.0,0.0,798.0,1,0.3162439476725503
850,850,0.6151098033734212,0.6,0,493.0,607.0,0.0,740.0,1,0.32454348182966064
851,851,-0.052246789126418,-0.1,1,486.0,812.0,1.0,1562.0,1,0.31313245234871134
852,852,0.029119999860464096,0.0,0,300.0,903.0,0.0,977.0,1,0.43709336905499396
853,853,-0.8544938507263824,-0.9,1,285.0,616.0,1.0,429.0,1,0.4404619796302716
854,854,0.8760047478936157,0.9,0,274.0,633.0,0.0,133.0,1,0.4443535431115707
855,855,0.08212251788702751,0.1,0,361.0,556.0,0.0,653.0,1,0.43783209785675786
856,856,-0.1515005360900934,-0.2,1,309.0,593.0,1.0,908.0,1,0.3536295923654984
857,857,0.7181238043964151,0.7,0,462.0,718.0,0.0,230.0,1,0.3091038345474901
858,858,0.694837691578023,0.7,0,358.0,893.0,0.0,209.0,1,0.4385020524552662
859,859,0.06076627877908525,0.1,0,490.0,565.0,1.0,2685.0,0,0.43334527961739566
860,860,-0.024881635663495327,-0.0,1,268.0,989.0,0.0,343.0,0,0.3647853389952164
861,861,0.6386645699834563,0.6,0,304.0,984.0,0.0,582.0,1,0.314496954903125
862,862,0.07746092025008511,0.1,0,406.0,766.0,1.0,2748.0,0,0.46636090988251505
863,863,0.9832484198671161,1.0,0,253.0,979.0,0.0,1028.0,1,0.49385785183966735
864,864,0.6922341384965178,0.7,0,434.0,592.0,0.0,594.0,1,0.35163860933787855
865,865,0.3079544441902813,0.3,0,472.0,585.0,0.0,373.0,1,0.40582313764952777
866,866,-0.8107995894698194,-0.8,1,359.0,708.0,1.0,463.0,1,0.4389116809826976
867,867,-0.9228484538919033,-0.9,1,341.0,707.0,1.0,322.0,1,0.39551472469802434
868,868,-0.09075188117613386,-0.1,1,269.0,559.0,1.0,722.0,1,0.4800079545868991
869,869,0.5089615213021996,0.5,0,444.0,811.0,0.0,135.0,1,0.35147476209929845
870,870,0.7036640299609385,0.7,0,395.0,962.0,0.0,983.0,1,0.3531618467118652
871,871,0.14624668300356825,0.1,0,283.0,869.0,0.0,928.0,1,0.49443275929125907
872,872,0.3911012369975846,0.4,0,466.0,897.0,0.0,247.0,1,0.35791602147805224
873,873,0.8810359835841759,0.9,0,413.0,525.0,0.0,202.0,1,0.3970392982023046
874,874,0.8723545064118878,0.9,0,284.0,741.0,0.0,215.0,1,0.3368883253868361
875,875,-0.7724744391106442,-0.8,1,482.0,512.0,1.0,396.0,1,0.4669365359060381
876,876,0.8683473765234171,0.9,0,340.0,892.0,0.0,398.0,1,0.3604621971296964
877,877,-0.08269052565353352,-0.1,1,314.0,585.0,0.0,331.0,0,0.4763763630293529
878,878,-0.5669276028677279,-0.6,1,490.0,593.0,1.0,237.0,1,0.4404324899338433
879,879,0.973258602713359,1.0,0,474.0,589.0,0.0,307.0,1,0.49076122205662226
880,880,-0.8323871916640881,-0.8,1,496.0,695.0,1.0,329.0,1,0.44746032666929725
881,881,0.2619928388881485,0.3,0,371.0,774.0,0.0,495.0,1,0.3393434550346057
882,882,-0.39306895665749475,-0.4,1,376.0,514.0,1.0,580.0,1,0.31753668551913394
883,883,0.1063271180940466,0.1,0,264.0,674.0,1.0,1582.0,0,0.3973122504161366
884,884,-0.8880354833944808,-0.9,1,496.0,860.0,1.0,224.0,1,0.3753703309111888
885,885,0.830294674855234,0.8,0,467.0,632.0,0.0,161.0,1,0.33894767215813715
886,886,0.6337174815194972,0.6,0,314.0,602.0,0.0,334.0,1,0.3314382174837743
887,887,-0.6500494822825096,-0.7,1,433.0,741.0,1.0,366.0,1,0.4447265553587284
888,888,-0.13768729513848954,-0.1,1,421.0,845.0,1.0,514.0,1,0.4669169096474693
889,889,0.8707859403394884,0.9,0,280.0,954.0,0.0,16.0,1,0.4488848415544834
890,890,0.7513737469226687,0.8,0,287.0,571.0,0.0,542.0,1,0.4180749339775336
891,891,-0.0780925966984003,-0.1,1,325.0,659.0,1.0,1076.0,1,0.3112536682917865
892,892,0.14732316746966512,0.1,0,304.0,991.0,0.0,1245.0,1,0.3196947739002666
893,893,-0.33904462995408746,-0.3,1,487.0,976.0,1.0,757.0,1,0.4141048155682654
894,894,0.1656687603997451,0.2,0,340.0,526.0,0.0,674.0,1,0.4453204269099327
895,895,-0.47919144592475216,-0.5,1,333.0,744.0,1.0,563.0,1,0.3511042660527864
896,896,0.2829994287128159,0.3,0,392.0,663.0,0.0,315.0,1,0.32484815606995837
897,897,0.6849455630943664,0.7,0,407.0,600.0,0.0,113.0,1,0.46964374345461013
898,898,0.4271607467206404,0.4,0,397.0,987.0,0.0,286.0,1,0.39537965485294935
899,899,0.7881372399990474,0.8,0,254.0,742.0,0.0,214.0,1,0.4919511545811474
900,900,0.0175320466095219,0.0,0,343.0,639.0,1.0,1098.0,0,0.33885482098458497
901,901,0.7875912133729119,0.8,0,289.0,504.0,0.0,217.0,1,0.42190920392142583
902,902,-0.5834441827998358,-0.6,1,475.0,761.0,1.0,254.0,1,0.47587848110109254
903,903,0.14207142542063922,0.1,0,481.0,942.0,0.0,417.0,1,0.4031071461226873
904,904,0.5541572588647152,0.6,0,447.0,758.0,0.0,305.0,1,0.3493178349362582
905,905,0.11241289506751695,0.1,0,470.0,908.0,0.0,252.0,1,0.4522173894588344
906,906,0.17146133594965351,0.2,0,445.0,983.0,0.0,932.0,1,0.44074421147608855
907,907,0.4145881144653125,0.4,0,467.0,599.0,0.0,224.0,1,0.4534106019834125
908,908,0.27260580427042624,0.3,0,345.0,672.0,0.0,423.0,1,0.30027717982845653
909,909,0.22718105803953947,0.2,0,320.0,705.0,0.0,865.0,1,0.3387353267411316
910,910,0.24396776709497847,0.2,0,255.0,530.0,0.0,945.0,1,0.4295372893540529
911,911,0.4239149874707797,0.4,0,482.0,921.0,0.0,427.0,1,0.4418336094351443
912,912,0.39313036773759014,0.4,0,397.0,528.0,0.0,515.0,1,0.30713719700530423
913,913,0.2084287795951727,0.2,0,425.0,836.0,0.0,-51.0,1,0.47558317490563845
914,914,0.3904592227379122,0.4,0,359.0,881.0,0.0,750.0,1,0.4652743527795052
915,915,0.06636531330202589,0.1,0,384.0,732.0,0.0,564.0,1,0.30053044914356203
916,916,0.8125632901438131,0.8,0,254.0,691.0,0.0,355.0,1,0.3126043063547465
917,917,0.6500526652755279,0.7,0,410.0,562.0,0.0,898.0,1,0.3070374644257783
918,918,0.36794201707511975,0.4,0,422.0,938.0,0.0,770.0,1,0.31504823445122565
919,919,0.3153891942269149,0.3,0,461.0,554.0,0.0,595.0,1,0.45256257736599775
920,920,0.6808601271715933,0.7,0,307.0,760.0,0.0,383.0,1,0.3864085185317148
921,921,-0.9637756357867144,-1.0,1,302.0,760.0,1.0,218.0,1,0.3261821072525347
922,922,0.5911896868527187,0.6,0,475.0,706.0,0.0,269.0,1,0.48825395878604233
923,923,-0.7584706397778527,-0.8,1,277.0,885.0,1.0,268.0,1,0.33658335456631305
924,924,-0.4203748389397608,-0.4,1,252.0,711.0,1.0,707.0,1,0.32552619074733424
925,925,0.7772068007284605,0.8,0,401.0,627.0,0.0,402.0,1,0.37866460759321696
926,926,0.1252533203091195,0.1,0,370.0,890.0,0.0,1050.0,1,0.3021386767916668
927,927,0.8946274468816058,0.9,0,276.0,909.0,0.0,125.0,1,0.451873261282113
928,928,-0.1964019159363437,-0.2,1,314.0,577.0,1.0,439.0,1,0.42955569716346087
929,929,0.77930547856281,0.8,0,333.0,688.0,0.0,439.0,1,0.39575000720504017
930,930,0.9282226784739382,0.9,0,371.0,910.0,0.0,159.0,1,0.35473334842335863
931,931,-0.18342500917830162,-0.2,1,370.0,513.0,1.0,707.0,1,0.35634118193259534
932,932,-0.6160444249743855,-0.6,1,317.0,899.0,1.0,294.0,1,0.42028008603582584
933,933,0.5550166957566351,0.6,0,319.0,607.0,0.0,484.0,1,0.34180512124412393
934,934,-0.4109429980418209,-0.4,1,470.0,692.0,1.0,348.0,1,0.3765147091008241
935,935,-0.27643119714981834,-0.3,1,474.0,551.0,1.0,795.0,1,0.47152147057633587
936,936,-0.8603156813300441,-0.9,1,406.0,974.0,1.0,270.0,1,0.4259473113135172
937,937,-0.8978845138422442,-0.9,1,466.0,916.0,1.0,218.0,1,0.3838690436065928
938,938,0.4545652576321988,0.5,0,424.0,586.0,0.0,290.0,1,0.4232228636397699
939,939,0.08086270820957897,0.1,0,486.0,663.0,0.0,2151.0,1,0.3879571973752611
940,940,-0.7152303107533524,-0.7,1,340.0,652.0,1.0,228.0,1,0.3067445530523786
941,941,0.8311877210739906,0.8,0,366.0,759.0,0.0,275.0,1,0.30466866241364293
942,942,0.7027666912305843,0.7,0,443.0,780.0,0.0,217.0,1,0.4928664275439437
943,943,-0.8049123893109689,-0.8,1,406.0,600.0,1.0,304.0,1,0.3214799923616774
944,944,0.9060655168115661,0.9,0,264.0,681.0,0.0,205.0,1,0.3309746242669264
945,945,-0.11342076118446087,-0.1,1,486.0,972.0,1.0,1082.0,1,0.47276231580666644
946,946,0.228414310113086,0.2,0,398.0,967.0,0.0,205.0,1,0.4114345077931098
947,947,-0.24637200710264318,-0.2,1,407.0,533.0,1.0,960.0,1,0.4804487015497789
948,948,-0.7260754641480445,-0.7,1,283.0,637.0,1.0,400.0,1,0.32569031545710564
949,949,0.8833317731081158,0.9,0,411.0,522.0,0.0,257.0,1,0.3931887599566048
950,950,-0.3721310104296869,-0.4,1,412.0,871.0,1.0,237.0,1,0.38751203776312193
951,951,0.6898401424834371,0.7,0,386.0,891.0,0.0,273.0,1,0.42683828173552263
952,952,-0.6579301068769592,-0.7,1,387.0,633.0,1.0,280.0,1,0.4414970115471493
953,953,0.3858872422287587,0.4,0,418.0,608.0,0.0,394.0,1,0.4499301178677022
954,954,-0.2700322861381894,-0.3,1,440.0,597.0,1.0,883.0,1,0.4528353073588525
955,955,-0.8008462184862515,-0.8,1,334.0,876.0,1.0,330.0,1,0.38957507357952637
956,956,-0.6860296308659528,-0.7,1,356.0,865.0,1.0,299.0,1,0.36322401847943625
957,957,0.30926963642805205,0.3,0,443.0,972.0,0.0,515.0,1,0.34834698619919297
958,958,0.8851165094871438,0.9,0,339.0,535.0,0.0,336.0,1,0.38481150221896165
959,959,-0.9902885459330015,-1.0,1,307.0,624.0,1.0,189.0,1,0.31594990601889966
960,960,0.43954782256848035,0.4,0,385.0,921.0,0.0,324.0,1,0.3891681981491553
961,961,0.5606826824858182,0.6,0,329.0,589.0,0.0,212.0,1,0.41304556464853065
962,962,0.24699009063715383,0.2,0,424.0,752.0,0.0,1444.0,1,0.3524999313168533
963,963,0.5973231979596711,0.6,0,250.0,815.0,0.0,255.0,1,0.34536079552985205
964,964,0.41382401589078066,0.4,0,448.0,968.0,0.0,594.0,1,0.34428157447213864
965,965,0.10971345827468126,0.1,0,294.0,532.0,0.0,2674.0,1,0.42561431419749957
966,966,-0.03528844156702493,-0.0,1,492.0,624.0,0.0,814.0,0,0.4211082298158708
967,967,-0.22966655546880932,-0.2,1,302.0,572.0,1.0,676.0,1,0.3258503535700286
968,968,-0.4360430424419366,-0.4,1,312.0,689.0,1.0,459.0,1,0.41406562102786987
969,969,0.1425344064462808,0.1,0,284.0,989.0,0.0,137.0,1,0.4972470461619098
970,970,-0.003624902108818162,-0.0,1,277.0,581.0,0.0,1132.0,0,0.4106851418623716
971,971,-0.13648124718174026,-0.1,1,383.0,972.0,0.0,-685.0,0,0.468596683873419
972,972,-0.127645433892297,-0.1,1,435.0,620.0,1.0,915.0,1,0.35697682640730255
973,973,0.7650518118659977,0.8,0,483.0,834.0,0.0,203.0,1,0.4345810032884245
974,974,-0.26022370445097387,-0.3,1,359.0,501.0,1.0,1600.0,1,0.4597273116122431
975,975,0.2660406963768891,0.3,0,459.0,560.0,0.0,901.0,1,0.4028706258211216
976,976,0.060145323477934776,0.1,0,357.0,906.0,1.0,2277.0,0,0.4412414962971009
977,977,-0.08407329089038007,-0.1,1,278.0,970.0,1.0,1302.0,1,0.4723427062306641
978,978,-0.4841594500230617,-0.5,1,419.0,501.0,1.0,490.0,1,0.3752492847394029
979,979,0.9488860439578768,0.9,0,427.0,980.0,0.0,123.0,1,0.42874614796034605
980,980,-0.9915827294530086,-1.0,1,288.0,542.0,1.0,320.0,1,0.4614652817333162
981,981,-0.4606733914040908,-0.5,1,485.0,850.0,1.0,535.0,1,0.31200874408883866
982,982,0.3603510753761965,0.4,0,422.0,513.0,0.0,295.0,1,0.43567433141560924
983,983,-0.4164866312698765,-0.4,1,483.0,555.0,1.0,642.0,1,0.4934893027499395
984,984,0.8163311077850295,0.8,0,387.0,805.0,0.0,508.0,1,0.3447445672293965
985,985,0.02330915192436467,0.0,0,482.0,712.0,1.0,576.0,0,0.34321651454889074
986,986,-0.4649289878098817,-0.5,1,307.0,964.0,1.0,329.0,1,0.36194778408719813
987,987,0.5302860196378418,0.5,0,481.0,681.0,0.0,618.0,1,0.40465055875124895
988,988,-0.3046903871584614,-0.3,1,468.0,858.0,1.0,504.0,1,0.34947164452531143
989,989,-0.1537408072475377,-0.2,1,340.0,768.0,0.0,352.0,0,0.4421477249707044
990,990,0.9775814278262775,1.0,0,251.0,979.0,0.0,190.0,1,0.4209560458939883
991,991,0.03995994302570449,0.0,0,442.0,794.0,0.0,524.0,1,0.4164751401056689
992,992,-0.7925879262419611,-0.8,1,491.0,988.0,1.0,191.0,1,0.3119965386934255
993,993,-0.49019592810115276,-0.5,1,285.0,646.0,1.0,409.0,1,0.4629858583387741
994,994,0.7659559572965422,0.8,0,332.0,594.0,0.0,324.0,1,0.44033805086055655
995,995,-0.4451470395397148,-0.4,1,352.0,703.0,1.0,535.0,1,0.39424870833265047
996,996,-0.5871800155102962,-0.6,1,251.0,550.0,1.0,249.0,1,0.40221352444628
997,997,0.22531113969744454,0.2,0,374.0,516.0,0.0,310.0,1,0.32551076769237614
998,998,-0.998079471794689,-1.0,1,357.0,807.0,1.0,206.0,1,0.4361114006610638
999,999,0.7189031598499653,0.7,0,364.0,725.0,0.0,81.0,1,0.3337177950622169
1000,1000,-0.9746334936887344,-1.0,1,357.0,824.0,1.0,269.0,1,0.4348990688623159
1001,1001,-0.5235355195525078,-0.5,1,437.0,736.0,1.0,287.0,1,0.49149323895117264
1002,1002,0.22031676505747466,0.2,0,477.0,810.0,0.0,773.0,1,0.37837522691818404
1003,1003,-0.41873534473561214,-0.4,1,390.0,745.0,1.0,605.0,1,0.40244895677310233
1004,1004,-0.3054041994686849,-0.3,1,298.0,622.0,1.0,400.0,1,0.37927113506133814
1005,1005,0.9840024524091024,1.0,0,400.0,809.0,0.0,391.0,1,0.4295950824923903
1006,1006,0.7040073949105725,0.7,0,387.0,775.0,0.0,1108.0,1,0.4112267134562307
1007,1007,0.9125755153224908,0.9,0,320.0,967.0,0.0,503.0,1,0.4813276889971325
1008,1008,-0.4401223864642294,-0.4,1,321.0,838.0,1.0,611.0,1,0.4855051711818631
1009,1009,0.29188838780575144,0.3,0,390.0,916.0,0.0,814.0,1,0.30099558790413994
1010,1010,-0.18341055559844288,-0.2,1,262.0,865.0,1.0,613.0,1,0.3213150546193294
1011,1011,-0.9891079650882386,-1.0,1,252.0,664.0,1.0,264.0,1,0.4618268010978187
1012,1012,-0.10011175069101674,-0.1,1,286.0,927.0,1.0,2497.0,1,0.43345333152377125
1013,1013,-0.09406081594830673,-0.1,1,482.0,678.0,1.0,700.0,1,0.42086668325218696
1014,1014,-0.3587990536521557,-0.4,1,385.0,601.0,1.0,854.0,1,0.3108962764164568
1015,1015,-0.8282225683371425,-0.8,1,473.0,764.0,1.0,363.0,1,0.40950983212499664
1016,1016,-0.6814071759509608,-0.7,1,329.0,650.0,1.0,451.0,1,0.42127835009180337
1017,1017,-0.9887580179117068,-1.0,1,354.0,803.0,1.0,123.0,1,0.3959046598103523
1018,1018,0.8056443719457027,0.8,0,281.0,805.0,0.0,394.0,1,0.48507052965832176
1019,1019,0.5074566881575648,0.5,0,258.0,565.0,0.0,377.0,1,0.3232087827409988
1020,1020,-0.11916742341011011,-0.1,1,316.0,589.0,1.0,825.0,1,0.3017129095919302
1021,1021,-0.747837970544603,-0.7,1,381.0,558.0,1.0,401.0,1,0.40984363949012653
1022,1022,-0.5380138219982842,-0.5,1,276.0,632.0,1.0,282.0,1,0.3581710638049521
1023,1023,0.024885245529775446,0.0,0,289.0,927.0,1.0,614.0,0,0.36375418554574607
1024,1024,0.7873393556432555,0.8,0,454.0,609.0,0.0,507.0,1,0.42289675270560145
1025,1025,-0.8016033614177465,-0.8,1,338.0,625.0,1.0,157.0,1,0.34721669249171405
1026,1026,-0.2095910493074047,-0.2,1,261.0,655.0,1.0,794.0,1,0.4661693605919345
1027,1027,-0.13770467432079547,-0.1,1,255.0,621.0,1.0,574.0,1,0.48946272454362505
1028,1028,-0.9485305553557386,-0.9,1,311.0,754.0,0.0,-375.0,0,0.4977598658848542
1029,1029,0.8307399500043859,0.8,0,394.0,911.0,0.0,-425.0,1,0.4721439554076636
1030,1030,0.26406565291993367,0.3,0,408.0,587.0,0.0,565.0,1,0.37450537877996304
1031,1031,0.22577152299434977,0.2,0,350.0,575.0,0.0,835.0,1,0.3188329125638688
1032,1032,-0.2208701838609315,-0.2,1,462.0,745.0,1.0,843.0,1,0.3990809113109478
1033,1033,-0.47684002880206133,-0.5,1,366.0,791.0,1.0,273.0,1,0.441791863003125
1034,1034,0.3711609043162871,0.4,0,278.0,965.0,0.0,547.0,1,0.3232871084624457
1035,1035,0.709157420610361,0.7,0,270.0,663.0,0.0,467.0,1,0.4550592487657494
1036,1036,-0.7874570072610834,-0.8,1,315.0,931.0,1.0,314.0,1,0.4752922241399162
1037,1037,-0.07352370829273513,-0.1,1,431.0,957.0,1.0,1022.0,1,0.3553316465887929
1038,1038,0.6632023327943812,0.7,0,494.0,795.0,0.0,1241.0,1,0.4335709517428453
1039,1039,-0.5614383353627188,-0.6,1,287.0,652.0,1.0,381.0,1,0.4588980913021058
1040,1040,-0.3839511566393552,-0.4,1,398.0,664.0,1.0,948.0,1,0.3534397274555515
1041,1041,0.746800037468784,0.7,0,469.0,609.0,0.0,212.0,1,0.31277383577910467
1042,1042,0.3835223145969897,0.4,0,315.0,790.0,0.0,1565.0,1,0.45145222724337297
1043,1043,-0.6536199437456276,-0.7,1,275.0,597.0,1.0,308.0,1,0.3511260738587045
1044,1044,0.4193747594912671,0.4,0,458.0,524.0,0.0,328.0,1,0.42554030648369323
1045,1045,0.43461983180276564,0.4,0,284.0,560.0,0.0,656.0,1,0.43459206042261633
1046,1046,0.26880411178797137,0.3,0,419.0,806.0,0.0,585.0,1,0.4557947111652013
1047,1047,0.7342986277970465,0.7,0,451.0,570.0,0.0,169.0,1,0.4538323241438471
1048,1048,0.8928649177415386,0.9,0,347.0,946.0,0.0,247.0,1,0.4019698289697864
1049,1049,-0.473337763181523,-0.5,1,446.0,502.0,1.0,242.0,1,0.49716706984075953
1050,1050,0.2020345460014743,0.2,0,358.0,884.0,0.0,328.0,1,0.47780361534264165
1051,1051,-0.1494770821602185,-0.1,1,438.0,834.0,1.0,568.0,1,0.4137007303897492
1052,1052,0.6727256676598528,0.7,0,275.0,919.0,0.0,456.0,1,0.30608805388701893
1053,1053,-0.2835822113072426,-0.3,1,340.0,589.0,1.0,451.0,1,0.39845976600611543
1054,1054,-0.8912885574309246,-0.9,1,261.0,547.0,1.0,192.0,1,0.33824405336786445
1055,1055,0.8020514254802984,0.8,0,429.0,830.0,0.0,251.0,1,0.39187812571532865
1056,1056,-0.3415311241378167,-0.3,1,391.0,577.0,1.0,312.0,1,0.3861514358097227
1057,1057,-0.8719966826392671,-0.9,1,253.0,925.0,1.0,172.0,1,0.3820776211804211
1058,1058,-0.8136943020980043,-0.8,1,476.0,523.0,1.0,291.0,1,0.4200071282733038
1059,1059,-0.771845363189051,-0.8,1,419.0,866.0,0.0,-885.0,0,0.3607142097576629
1060,1060,-0.15649414497401004,-0.2,1,356.0,935.0,1.0,2279.0,1,0.3931967448831799
1061,1061,0.05391209284367671,0.1,0,272.0,681.0,0.0,847.0,1,0.36726793638945193
1062,1062,0.4218500088430577,0.4,0,495.0,538.0,0.0,517.0,1,0.41515946563765316
1063,1063,0.6528398927625922,0.7,0,349.0,771.0,0.0,310.0,1,0.34082149842531834
1064,1064,0.431855896348214,0.4,0,361.0,875.0,0.0,694.0,1,0.42888829016315705
1065,1065,0.5793017381855234,0.6,0,392.0,640.0,0.0,118.0,1,0.3880754123640556
1066,1066,-0.1402972128183062,-0.1,1,480.0,798.0,0.0,172.0,0,0.4976903306143149
1067,1067,-0.4090123155849561,-0.4,1,411.0,513.0,1.0,246.0,1,0.4023246816508156
1068,1068,0.29651872271643076,0.3,0,282.0,734.0,0.0,464.0,1,0.33558644953098987
1069,1069,0.38885868380602595,0.4,0,444.0,704.0,0.0,342.0,1,0.34299673808359304
1070,1070,0.5691007201043914,0.6,0,299.0,591.0,0.0,1350.0,1,0.4161470837891736
1071,1071,-0.8464048470034382,-0.8,1,469.0,773.0,1.0,388.0,1,0.4450874133560444
1072,1072,-0.4114886007977614,-0.4,1,303.0,813.0,1.0,444.0,1,0.3716942855421193
1073,1073,0.6671375204176535,0.7,0,329.0,721.0,0.0,290.0,1,0.4929334331111793
1074,1074,0.26333674890866976,0.3,0,304.0,715.0,0.0,1581.0,1,0.4947921307765055
1075,1075,-0.7953228373034549,-0.8,1,385.0,936.0,1.0,259.0,1,0.4602749456289516
1076,1076,0.2722273511761659,0.3,0,463.0,894.0,0.0,863.0,1,0.466556825464104
1077,1077,0.03413940054604825,0.0,0,353.0,796.0,1.0,621.0,0,0.465096916596111
1078,1078,0.698633679717112,0.7,0,409.0,821.0,0.0,240.0,1,0.42503758774658873
1079,1079,0.35327032778276224,0.4,0,298.0,580.0,0.0,422.0,1,0.3953644591639653
1080,1080,-0.8786579028758443,-0.9,1,320.0,742.0,1.0,258.0,1,0.34700575168709247
1081,1081,0.5916962476191305,0.6,0,294.0,865.0,0.0,181.0,1,0.45036624315103413
1082,1082,0.9185551003823367,0.9,0,299.0,936.0,0.0,555.0,1,0.46277002041952975
1083,1083,-0.7281103784423877,-0.7,1,434.0,512.0,1.0,224.0,1,0.37737433523193536
1084,1084,0.8134603015066528,0.8,0,403.0,626.0,0.0,311.0,1,0.43726584786404576
1085,1085,-0.14452572141038633,-0.1,1,408.0,618.0,1.0,324.0,1,0.3492986464452519
1086,1086,0.3671054108221241,0.4,0,425.0,647.0,0.0,458.0,1,0.4043028021758281
1087,1087,-0.8989051308437064,-0.9,1,381.0,614.0,1.0,345.0,1,0.47304423100768184
1088,1088,-0.48815920639993426,-0.5,1,409.0,758.0,1.0,513.0,1,0.43887158459537634
1089,1089,-0.47828778120194393,-0.5,1,464.0,813.0,1.0,403.0,1,0.4953278580732818
1090,1090,-0.634690341908047,-0.6,1,266.0,704.0,1.0,230.0,1,0.4144602916678587
1091,1091,0.7709697708185046,0.8,0,443.0,572.0,0.0,645.0,1,0.4265532500970265
1092,1092,-0.7948010387729056,-0.8,1,398.0,788.0,1.0,394.0,1,0.44972211372959303
1093,1093,0.5322724405526311,0.5,0,411.0,683.0,0.0,356.0,1,0.4464394964997783
1094,1094,-0.8296572044136257,-0.8,1,423.0,783.0,1.0,254.0,1,0.39346342494342723
1095,1095,0.5036514468302391,0.5,0,373.0,887.0,0.0,140.0,1,0.4480966368620992
1096,1096,-0.5698964212238291,-0.6,1,359.0,737.0,1.0,404.0,1,0.46367084972707046
1097,1097,-0.7284036013847441,-0.7,1,329.0,676.0,1.0,295.0,1,0.36954928174216894
1098,1098,-0.2606782341788991,-0.3,1,381.0,556.0,1.0,323.0,1,0.3027703369205656
1099,1099,-0.8444828709499961,-0.8,1,288.0,868.0,1.0,264.0,1,0.4988797576340207
1100,1100,0.3324856174744426,0.3,0,497.0,983.0,0.0,320.0,1,0.46258341563681626
1101,1101,0.42267896903280366,0.4,0,380.0,656.0,0.0,674.0,1,0.49986891267422406
1102,1102,-0.5846676839032765,-0.6,1,429.0,941.0,1.0,330.0,1,0.4548594066757612
1103,1103,0.25305970560993707,0.3,0,498.0,965.0,0.0,377.0,1,0.3271725580400336
1104,1104,-0.3412763881418148,-0.3,1,412.0,697.0,1.0,411.0,1,0.3776499835028935
1105,1105,0.6879169367995139,0.7,0,359.0,931.0,0.0,230.0,1,0.34768153522947354
1106,1106,-0.14299076424243906,-0.1,1,487.0,627.0,1.0,856.0,1,0.459575391622818
1107,1107,-0.761244418873245,-0.8,1,256.0,537.0,1.0,407.0,1,0.38777575043953566
1108,1108,0.7608685403831981,0.8,0,284.0,649.0,0.0,547.0,1,0.44781515460856247
1109,1109,-0.25416336072247336,-0.3,1,281.0,875.0,1.0,814.0,1,0.3276123736933989
1110,1110,0.25885260993961223,0.3,0,271.0,699.0,0.0,340.0,1,0.46641070738002577
1111,1111,-0.5935572652299665,-0.6,1,495.0,815.0,1.0,430.0,1,0.4039868661853275
1112,1112,-0.2599285610328983,-0.3,1,488.0,509.0,1.0,453.0,1,0.3121735915914635
1113,1113,0.2999796421284531,0.3,0,267.0,890.0,0.0,673.0,1,0.36562917568753006
1114,1114,0.8335348834465777,0.8,0,442.0,510.0,0.0,388.0,1,0.4617220081685657
1115,1115,-0.7367535364178868,-0.7,1,258.0,763.0,1.0,269.0,1,0.37353209596882303
1116,1116,-0.11515198808903904,-0.1,1,379.0,593.0,1.0,568.0,1,0.4044316233804639
1117,1117,0.506776741745429,0.5,0,344.0,579.0,0.0,1207.0,1,0.48854669413118573
1118,1118,0.5581101211228796,0.6,0,437.0,844.0,0.0,319.0,1,0.433260916373114
1119,1119,-0.6966947568914275,-0.7,1,310.0,726.0,1.0,214.0,1,0.3423459124021125
1120,1120,-0.884883823278066,-0.9,1,288.0,646.0,1.0,336.0,1,0.3050887866884966
1121,1121,0.475080215445,0.5,0,263.0,867.0,0.0,380.0,1,0.3743653775901876
1122,1122,-0.4710771323988001,-0.5,1,377.0,555.0,1.0,408.0,1,0.4452818153286064
1123,1123,0.6159507397446791,0.6,0,297.0,866.0,0.0,267.0,1,0.35537842207072196
1124,1124,-0.15917168437639018,-0.2,1,430.0,850.0,1.0,940.0,1,0.3620191841129917
1125,1125,-0.1638488670928373,-0.2,1,410.0,717.0,1.0,753.0,1,0.41314340822864015
1126,1126,-0.34920240671747416,-0.3,1,251.0,776.0,1.0,383.0,1,0.4519776209703782
1127,1127,-0.8056491845756399,-0.8,1,381.0,939.0,1.0,370.0,1,0.4145409103246165
1128,1128,0.38339368772374294,0.4,0,257.0,827.0,0.0,1336.0,1,0.38584814453420135
1129,1129,0.47042832443098126,0.5,0,477.0,913.0,0.0,800.0,1,0.30297467849130816
1130,1130,-0.7149188052200484,-0.7,1,438.0,797.0,1.0,535.0,1,0.47755061179535047
1131,1131,0.05950058936369573,0.1,0,415.0,653.0,1.0,1492.0,0,0.3938072488007559
1132,1132,-0.4174190025976292,-0.4,1,316.0,989.0,1.0,235.0,1,0.39611274031184845
1133,1133,0.8434276864428301,0.8,0,372.0,824.0,0.0,214.0,1,0.4701811957826627
1134,1134,-0.8060456710099375,-0.8,1,352.0,893.0,1.0,195.0,1,0.38494344378398526
1135,1135,-0.7666125283483021,-0.8,1,286.0,809.0,1.0,235.0,1,0.3915615789763601
1136,1136,0.8556554492117043,0.9,0,361.0,625.0,0.0,344.0,1,0.4722077891958608
1137,1137,0.42296386772560335,0.4,0,448.0,834.0,0.0,708.0,1,0.3344533490995208
1138,1138,0.01632714559508508,0.0,0,334.0,658.0,0.0,568.0,1,0.4807612916849594
1139,1139,-0.10881893073371551,-0.1,1,304.0,635.0,1.0,641.0,1,0.34037524021908266
1140,1140,-0.8712776398270683,-0.9,1,431.0,632.0,1.0,347.0,1,0.44598613106361396
1141,1141,-0.21910360637219695,-0.2,1,385.0,754.0,1.0,791.0,1,0.4361975451693113
1142,1142,-0.6830045087974834,-0.7,1,491.0,941.0,1.0,518.0,1,0.3911429429635015
1143,1143,0.09608033772495261,0.1,0,393.0,883.0,1.0,604.0,0,0.3141515183972037
1144,1144,0.14215607027483323,0.1,0,269.0,933.0,0.0,518.0,1,0.3311848763975219
1145,1145,0.6716509343323971,0.7,0,427.0,711.0,0.0,402.0,1,0.38181682944046913
1146,1146,0.6806304659021991,0.7,0,340.0,853.0,0.0,357.0,1,0.3160148558319959
1147,1147,0.6322353476686351,0.6,0,316.0,596.0,0.0,238.0,1,0.47347189620132824
1148,1148,-0.35330839560356186,-0.4,1,268.0,770.0,1.0,602.0,1,0.3489862027957701
1149,1149,0.2750415585799455,0.3,0,323.0,587.0,0.0,240.0,1,0.32661185278700755
1150,1150,0.8781069596977245,0.9,0,487.0,672.0,0.0,311.0,1,0.35460405767778425
1151,1151,0.42259789075170806,0.4,0,378.0,943.0,0.0,279.0,1,0.41375381856435145
1152,1152,-0.45710473368974447,-0.5,1,343.0,901.0,1.0,406.0,1,0.45175884277889133
1153,1153,-0.340579093257418,-0.3,1,469.0,853.0,1.0,858.0,1,0.47368629429834325
1154,1154,0.4688083231773048,0.5,0,394.0,724.0,0.0,532.0,1,0.4201556091208672
1155,1155,0.48267635509261875,0.5,0,489.0,836.0,0.0,545.0,1,0.3394411028118002
1156,1156,-0.31579573917491754,-0.3,1,394.0,646.0,1.0,590.0,1,0.36633530127154484
1157,1157,-0.6547806819976827,-0.7,1,485.0,671.0,1.0,294.0,1,0.440141937216872
1158,1158,0.4652685693987848,0.5,0,365.0,814.0,0.0,501.0,1,0.42374994539361377
1159,1159,-0.07661395309390806,-0.1,1,271.0,893.0,1.0,1526.0,1,0.449830181911769
1160,1160,0.7999845143836659,0.8,0,474.0,973.0,0.0,423.0,1,0.4536051463032093
1161,1161,0.9599863447978019,1.0,0,419.0,829.0,0.0,192.0,1,0.48429655048293024
1162,1162,0.7129006110024156,0.7,0,421.0,699.0,0.0,360.0,1,0.43361984955464594
1163,1163,-0.774821549127243,-0.8,1,301.0,935.0,1.0,294.0,1,0.3943775041412445
1164,1164,0.83258066593408,0.8,0,278.0,691.0,0.0,421.0,1,0.3738223643663134
1165,1165,0.7101240874198382,0.7,0,341.0,607.0,0.0,352.0,1,0.48053723700845263
1166,1166,-0.042983616818803805,-0.0,1,264.0,838.0,1.0,2558.0,1,0.4186170283824951
1167,1167,0.7982476651582828,0.8,0,474.0,798.0,0.0,238.0,1,0.3146775533157749
1168,1168,-0.174478128000777,-0.2,1,254.0,702.0,1.0,924.0,1,0.31978668390635295
1169,1169,-0.9954695893578853,-1.0,1,265.0,599.0,1.0,376.0,1,0.4770827649783708
1170,1170,0.9578711979317738,1.0,0,445.0,774.0,0.0,321.0,1,0.3025651580064571
1171,1171,0.06251691406544801,0.1,0,387.0,750.0,1.0,853.0,0,0.3664118793709286
1172,1172,-0.008911683924343272,-0.0,1,466.0,783.0,1.0,1231.0,1,0.32871979533496914
1173,1173,0.9713779972724526,1.0,0,470.0,608.0,0.0,142.0,1,0.4838027772526322
1174,1174,0.3748437220951384,0.4,0,413.0,867.0,0.0,400.0,1,0.41376373794210186
1175,1175,-0.6792601324568543,-0.7,1,473.0,744.0,1.0,533.0,1,0.3797070187251552
1176,1176,-0.6176508615418743,-0.6,1,335.0,844.0,1.0,301.0,1,0.461196476795545
1177,1177,0.26151884145640936,0.3,0,272.0,851.0,0.0,597.0,1,0.4902429441189412
1178,1178,-0.24006029016202501,-0.2,1,375.0,627.0,1.0,478.0,1,0.3311331120093389
1179,1179,-0.9044508818041788,-0.9,1,250.0,805.0,1.0,405.0,1,0.360252181436953
1180,1180,0.9644667092646246,1.0,0,262.0,552.0,0.0,226.0,1,0.4478034518719979
1181,1181,-0.8869080649234866,-0.9,1,346.0,512.0,1.0,212.0,1,0.4744504026639883
1182,1182,0.5659572670354374,0.6,0,467.0,738.0,0.0,595.0,1,0.45895214100162335
1183,1183,0.7286762688299675,0.7,0,396.0,542.0,0.0,652.0,1,0.3917715142360464
1184,1184,0.5993270909541806,0.6,0,318.0,874.0,0.0,228.0,1,0.4873073039995701
1185,1185,0.3885021213123949,0.4,0,321.0,925.0,0.0,404.0,1,0.31443215471658814
1186,1186,-0.7313230990049122,-0.7,1,352.0,898.0,1.0,370.0,1,0.4606215377113294
1187,1187,0.7202430695079496,0.7,0,492.0,702.0,0.0,1046.0,1,0.3386962135362209
1188,1188,-0.09543673613609704,-0.1,1,376.0,832.0,1.0,702.0,1,0.47224403532971326
1189,1189,0.3114942452497136,0.3,0,460.0,682.0,0.0,388.0,1,0.3800821684707983
1190,1190,-0.12890025066694744,-0.1,1,489.0,604.0,1.0,707.0,1,0.42750706617645484
1191,1191,0.24714239670757987,0.2,0,295.0,887.0,0.0,1468.0,1,0.37357403591646643
1192,1192,0.027356038444890096,0.0,0,482.0,844.0,1.0,3674.0,0,0.3852437880708054
1193,1193,-0.4923842855133942,-0.5,1,457.0,891.0,1.0,542.0,1,0.48823558702500036
1194,1194,-0.08227382363483615,-0.1,1,321.0,517.0,1.0,972.0,1,0.43635163409228694
1195,1195,0.3097913762897564,0.3,0,392.0,876.0,0.0,672.0,1,0.3329369985708173
1196,1196,-0.8697240201688796,-0.9,1,272.0,535.0,1.0,313.0,1,0.34733948052958075
1197,1197,0.0599812852179511,0.1,0,314.0,684.0,0.0,862.0,1,0.31803065733228175
1198,1198,0.6443474264867146,0.6,0,253.0,808.0,0.0,399.0,1,0.3478009047209821
1199,1199,0.22459444283950236,0.2,0,365.0,774.0,0.0,201.0,1,0.40910795372771314
1200,1200,0.8810388028707568,0.9,0,466.0,844.0,0.0,280.0,1,0.43841346691598165
1201,1201,-0.44492192674096165,-0.4,1,293.0,767.0,1.0,820.0,1,0.3307798373647011
1202,1202,-0.14400141929001498,-0.1,1,274.0,734.0,1.0,462.0,1,0.3464412373770029
1203,1203,0.825657581558829,0.8,0,464.0,645.0,0.0,291.0,1,0.3298432685702517
1204,1204,-0.5197972351126618,-0.5,1,405.0,979.0,1.0,756.0,1,0.32217083338697966
1205,1205,0.9546685696360744,1.0,0,289.0,679.0,0.0,282.0,1,0.49283342051108153
1206,1206,0.6933348546051643,0.7,0,371.0,964.0,0.0,325.0,1,0.41810383662642686
1207,1207,0.6081392903492768,0.6,0,278.0,506.0,0.0,-164.0,1,0.48542236973664876
1208,1208,0.13934076675926388,0.1,0,411.0,630.0,1.0,739.0,0,0.31296361399842526
1209,1209,0.8281721075072348,0.8,0,312.0,630.0,0.0,228.0,1,0.3200701941484888
1210,1210,-0.2214477658430256,-0.2,1,466.0,522.0,1.0,222.0,1,0.35941469437639956
1211,1211,-0.3325814157738016,-0.3,1,282.0,521.0,1.0,317.0,1,0.32873344324964454
1212,1212,0.851389650797018,0.9,0,427.0,829.0,0.0,-366.0,1,0.4831328227445588
1213,1213,-0.5196176502728829,-0.5,1,334.0,517.0,1.0,419.0,1,0.4575873131403194
1214,1214,0.38175284894289474,0.4,0,412.0,722.0,0.0,306.0,1,0.4587801582553771
1215,1215,-0.4927785096249744,-0.5,1,294.0,901.0,1.0,415.0,1,0.4978837725331001
1216,1216,0.4952280667503739,0.5,0,306.0,757.0,0.0,437.0,1,0.48860736417662126
1217,1217,-0.9074942170537483,-0.9,1,334.0,535.0,1.0,551.0,1,0.49279768757227066
1218,1218,0.10282091298667728,0.1,0,464.0,912.0,0.0,1084.0,1,0.42869878528516925
1219,1219,0.7693373570425204,0.8,0,262.0,967.0,0.0,221.0,1,0.4962331840924941
1220,1220,0.5214841518882409,0.5,0,372.0,578.0,0.0,250.0,1,0.39504226883139826
1221,1221,-0.8329477370050078,-0.8,1,479.0,977.0,1.0,394.0,1,0.44551098742303674
1222,1222,-0.7545958058793965,-0.8,1,376.0,519.0,1.0,235.0,1,0.3908936117967242
1223,1223,-0.8937655665878246,-0.9,1,386.0,993.0,1.0,291.0,1,0.49128053036670044
1224,1224,0.6490596022862192,0.6,0,264.0,911.0,0.0,475.0,1,0.3126018068619207
1225,1225,0.08255601171519045,0.1,0,319.0,511.0,0.0,2020.0,1,0.47569480315318335
1226,1226,0.27945069114742127,0.3,0,455.0,964.0,0.0,601.0,1,0.47824539105792585
1227,1227,0.853389370973471,0.9,0,371.0,768.0,0.0,201.0,1,0.39576642027345743
1228,1228,-0.5608388473721613,-0.6,1,396.0,552.0,1.0,142.0,1,0.45423436238542253
1229,1229,0.18396726300158894,0.2,0,385.0,855.0,0.0,1780.0,1,0.3584960072882334
1230,1230,-0.4211914853184928,-0.4,1,464.0,797.0,1.0,439.0,1,0.4339160371099119
1231,1231,0.5845113646193798,0.6,0,450.0,854.0,0.0,396.0,1,0.4992952456036027
1232,1232,0.7110274560627574,0.7,0,307.0,912.0,0.0,241.0,1,0.43312732698537626
1233,1233,0.6945659286012833,0.7,0,365.0,710.0,0.0,545.0,1,0.39751900815035335
1234,1234,-0.3092203962283282,-0.3,1,337.0,668.0,1.0,315.0,1,0.4035251829328013
1235,1235,-0.5215236605240834,-0.5,1,312.0,544.0,1.0,414.0,1,0.3406878348980707
1236,1236,-0.6937215574383657,-0.7,1,373.0,784.0,1.0,513.0,1,0.4249575929262771
1237,1237,-0.8240110047332552,-0.8,1,307.0,524.0,1.0,349.0,1,0.48693707319790547
1238,1238,0.9432353189074889,0.9,0,344.0,699.0,0.0,457.0,1,0.4486754030586736
1239,1239,0.017222796304434684,0.0,0,416.0,572.0,1.0,1182.0,0,0.4844481349557174
1240,1240,0.19669311130582834,0.2,0,409.0,538.0,0.0,523.0,1,0.37137283293275913
1241,1241,-0.020712919038866406,-0.0,1,497.0,722.0,0.0,421.0,0,0.3376569517408172
1242,1242,-0.8744439660710202,-0.9,1,460.0,645.0,1.0,425.0,1,0.4674931598843364
1243,1243,0.450510634847594,0.5,0,351.0,836.0,0.0,613.0,1,0.4888162815675263
1244,1244,0.059193015362586365,0.1,0,314.0,571.0,0.0,1675.0,1,0.45664246197148173
1245,1245,-0.30474909895407065,-0.3,1,469.0,844.0,1.0,187.0,1,0.39588868137086897
1246,1246,0.9099792811328067,0.9,0,480.0,801.0,0.0,259.0,1,0.338194675778031
1247,1247,0.6592864699688257,0.7,0,499.0,621.0,0.0,310.0,1,0.336393666772265
1248,1248,0.4484553474676827,0.4,0,293.0,862.0,0.0,475.0,1,0.4429283766321307
1249,1249,-0.12706670545793397,-0.1,1,359.0,775.0,0.0,-794.0,0,0.4861683256308148
1250,1250,0.7157109660067682,0.7,0,485.0,929.0,0.0,306.0,1,0.31375122031249486
1251,1251,0.6321604866807378,0.6,0,439.0,597.0,0.0,474.0,1,0.4225845883118737
1252,1252,0.7625426893137384,0.8,0,402.0,732.0,0.0,256.0,1,0.314105353811706
1253,1253,-0.7656725709337706,-0.8,1,283.0,781.0,1.0,406.0,1,0.36874933843448543
1254,1254,-0.8042806817834836,-0.8,1,298.0,547.0,1.0,385.0,1,0.43671321323780865
1255,1255,0.24441328267220963,0.2,0,305.0,710.0,0.0,375.0,1,0.3625220178471251
1256,1256,0.08890530658767637,0.1,0,288.0,920.0,0.0,412.0,1,0.33500242816239567
1257,1257,0.8548858060972186,0.9,0,368.0,561.0,0.0,251.0,1,0.4027268211067735
1258,1258,0.42182366611060207,0.4,0,392.0,860.0,0.0,218.0,1,0.41881443324476525
1259,1259,0.9499800780102294,0.9,0,272.0,643.0,0.0,305.0,1,0.4643166215664052
1260,1260,-0.6142572113404341,-0.6,1,335.0,610.0,1.0,195.0,1,0.38990399342013143
1261,1261,-0.7726073330794143,-0.8,1,436.0,596.0,1.0,208.0,1,0.39817328291498144
1262,1262,0.11873216460732294,0.1,0,462.0,684.0,0.0,444.0,1,0.450060792643612
1263,1263,0.7840949273401525,0.8,0,278.0,745.0,0.0,317.0,1,0.3164386516237626
1264,1264,-0.17368999431147203,-0.2,1,312.0,513.0,1.0,1105.0,1,0.32586401532634984
1265,1265,-0.04830710695775253,-0.0,1,499.0,776.0,1.0,1055.0,1,0.4338823826968268
1266,1266,0.521670626154286,0.5,0,312.0,619.0,0.0,309.0,1,0.33911743977958486
1267,1267,-0.8424540084673353,-0.8,1,456.0,944.0,1.0,180.0,1,0.46261075785693206
1268,1268,0.6305281289412723,0.6,0,455.0,974.0,0.0,281.0,1,0.38036670039101006
1269,1269,0.8025155623952722,0.8,0,445.0,770.0,0.0,195.0,1,0.40856337527382136
1270,1270,-0.2683066586735827,-0.3,1,359.0,623.0,1.0,418.0,1,0.4031719673849843
1271,1271,0.03801155649382326,0.0,0,468.0,985.0,0.0,727.0,1,0.47886383036104185
1272,1272,-0.564539065985912,-0.6,1,274.0,530.0,1.0,506.0,1,0.3930177318328638
1273,1273,0.47380997216771137,0.5,0,395.0,896.0,0.0,509.0,1,0.46473119338528274
1274,1274,-0.38584792108577504,-0.4,1,475.0,589.0,1.0,486.0,1,0.44149043135677524
1275,1275,-0.15295422144893323,-0.2,1,328.0,506.0,1.0,486.0,1,0.32911140396489497
1276,1276,-0.3166064953000818,-0.3,1,467.0,564.0,1.0,529.0,1,0.3844336167529517
1277,1277,0.9027312043773947,0.9,0,297.0,705.0,0.0,48.0,1,0.4892283672937938
1278,1278,0.17827229226689023,0.2,0,251.0,782.0,0.0,1307.0,1,0.4652339557262204
1279,1279,-0.6765657814612431,-0.7,1,307.0,528.0,1.0,345.0,1,0.36950419356769004
