,trial,coherence,coherence_bin,correct_side,target_onset,checker_onset,decision,decision_time,correct_decision,delay
0,0,-0.8219679478371382,-0.8,1,470.0,755.0,1.0,255.0,1,53.409615648858534
1,1,-0.38020304001867156,-0.4,1,357.0,579.0,1.0,644.0,1,185.93908799439853
2,2,-0.3270034961110617,-0.3,1,292.0,951.0,1.0,1047.0,1,201.89895116668148
3,3,0.1754155720412527,0.2,0,322.0,963.0,0.0,1225.0,1,247.3753283876242
4,4,-0.5630897437188276,-0.6,1,473.0,768.0,1.0,409.0,1,131.07307688435174
5,5,-0.520531139682006,-0.5,1,430.0,532.0,1.0,388.0,1,143.8406580953982
6,6,0.5080320368709257,0.5,0,387.0,765.0,0.0,458.0,1,147.5903889387223
7,7,0.4549478905711193,0.5,0,273.0,512.0,0.0,505.0,1,163.51563282866422
8,8,-0.6820364824262193,-0.7,1,480.0,547.0,1.0,343.0,1,95.38905527213421
9,9,0.70995351016393,0.7,0,478.0,725.0,0.0,387.0,1,87.01394695082098
10,10,-0.9650650608755327,-1.0,1,475.0,844.0,1.0,161.0,1,10.480481737340197
11,11,0.47546208914695476,0.5,0,361.0,682.0,0.0,507.0,1,157.36137325591358
12,12,0.5718149552906999,0.6,0,265.0,884.0,0.0,481.0,1,128.45551341279003
13,13,0.5307258213315664,0.5,0,284.0,653.0,0.0,413.0,1,140.78225360053008
14,14,-0.7838471336647754,-0.8,1,267.0,626.0,1.0,257.0,1,64.84585990056738
15,15,0.661658628658335,0.7,0,439.0,692.0,0.0,379.0,1,101.50241140249949
16,16,-0.3003106187703253,-0.3,1,411.0,923.0,1.0,526.0,1,209.90681436890242
17,17,-0.2951609378580433,-0.3,1,330.0,854.0,1.0,476.0,1,211.451718642587
18,18,-0.17384132580745582,-0.2,1,378.0,778.0,1.0,1064.0,1,247.84760225776324
19,19,0.49581275353023946,0.5,0,399.0,537.0,0.0,374.0,1,151.25617394092816
20,20,-0.34447807840504563,-0.3,1,485.0,700.0,1.0,585.0,1,196.6565764784863
21,21,-0.7276339795732616,-0.7,1,445.0,739.0,1.0,266.0,1,81.70980612802153
22,22,-0.8281093487101245,-0.8,1,361.0,990.0,1.0,339.0,1,51.56719538696264
23,23,-0.02401460511108988,-0.0,1,423.0,711.0,1.0,1576.0,1,292.79561846667303
24,24,-0.8141015728669652,-0.8,1,346.0,733.0,1.0,291.0,1,55.76952813991045
25,25,0.488330535077121,0.5,0,315.0,595.0,0.0,350.0,1,153.50083947686372
26,26,-0.007378012182836624,-0.0,1,374.0,557.0,1.0,1189.0,1,297.786596345149
27,27,-0.9184395390572908,-0.9,1,352.0,745.0,1.0,153.0,1,24.468138282812756
28,28,-0.8260671657649332,-0.8,1,482.0,968.0,1.0,240.0,1,52.179850270520035
29,29,-0.2878873450441084,-0.3,1,336.0,883.0,1.0,821.0,1,213.6337964867675
30,30,-0.8751884959474698,-0.9,1,393.0,508.0,1.0,249.0,1,37.44345121575905
31,31,0.7815438682166362,0.8,0,256.0,948.0,0.0,366.0,1,65.53683953500912
32,32,0.0029344419374135455,0.0,0,264.0,537.0,1.0,859.0,0,299.1196674187759
33,33,-0.23830235508231667,-0.2,1,299.0,872.0,1.0,589.0,1,228.509293475305
34,34,-0.5406404553003992,-0.5,1,357.0,957.0,1.0,356.0,1,137.80786340988024
35,35,0.8221752420608459,0.8,0,271.0,507.0,0.0,222.0,1,53.34742738174623
36,36,-0.9019352626183115,-0.9,1,390.0,749.0,1.0,181.0,1,29.419421214506556
37,37,-0.27510937009811154,-0.3,1,491.0,709.0,1.0,480.0,1,217.46718897056653
38,38,0.2771370485744824,0.3,0,474.0,890.0,0.0,526.0,1,216.85888542765528
39,39,-0.5811355357717018,-0.6,1,272.0,616.0,1.0,312.0,1,125.65933926848945
40,40,-0.580004324610869,-0.6,1,290.0,635.0,1.0,325.0,1,125.9987026167393
41,41,-0.1634549781401089,-0.2,1,330.0,859.0,1.0,791.0,1,250.96350655796732
42,42,0.4604754071350916,0.5,0,305.0,552.0,0.0,403.0,1,161.8573778594725
43,43,0.7420207756048107,0.7,0,437.0,615.0,0.0,368.0,1,77.39376731855678
44,44,0.8975549136337375,0.9,0,373.0,781.0,0.0,136.0,1,30.733525909878743
45,45,-0.8273616274860391,-0.8,1,484.0,764.0,1.0,382.0,1,51.79151175418826
46,46,0.6312596887948365,0.6,0,349.0,607.0,0.0,394.0,1,110.62209336154905
47,47,-0.15375180551824275,-0.2,1,434.0,886.0,1.0,570.0,1,253.87445834452717
48,48,0.30915555813345774,0.3,0,318.0,739.0,0.0,473.0,1,207.25333255996267
49,49,0.5362514682519837,0.5,0,442.0,871.0,0.0,387.0,1,139.1245595244049
50,50,-0.26794394856723547,-0.3,1,463.0,770.0,1.0,837.0,1,219.61681542982936
51,51,0.7508577426898944,0.8,0,358.0,590.0,0.0,262.0,1,74.7426771930317
52,52,0.8827984493700451,0.9,0,263.0,747.0,0.0,240.0,1,35.16046518898646
53,53,0.3244906968998178,0.3,0,318.0,848.0,0.0,694.0,1,202.65279093005466
54,54,0.8696849528244397,0.9,0,368.0,738.0,0.0,274.0,1,39.09451415266809
55,55,0.6399443431017402,0.6,0,437.0,648.0,0.0,725.0,1,108.01669706947794
56,56,-0.3976797858868064,-0.4,1,453.0,899.0,1.0,458.0,1,180.69606423395808
57,57,-0.33894530955044755,-0.3,1,413.0,690.0,1.0,557.0,1,198.31640713486573
58,58,-0.9177389434986252,-0.9,1,459.0,732.0,1.0,189.0,1,24.678316950412448
59,59,-0.19914616221346004,-0.2,1,391.0,531.0,1.0,1668.0,1,240.256151335962
60,60,0.29393117032730043,0.3,0,310.0,820.0,0.0,1240.0,1,211.82064890180988
61,61,-0.05150767985029958,-0.1,1,475.0,713.0,1.0,922.0,1,284.54769604491014
62,62,0.6722258032180879,0.7,0,380.0,629.0,0.0,261.0,1,98.33225903457364
63,63,0.2848241559922229,0.3,0,255.0,891.0,0.0,1164.0,1,214.55275320233312
64,64,0.02621523119173852,0.0,0,442.0,930.0,1.0,638.0,0,292.13543064247847
65,65,-0.39105968347094433,-0.4,1,436.0,956.0,1.0,418.0,1,182.6820949587167
66,66,0.9640085128851028,1.0,0,422.0,783.0,0.0,225.0,1,10.797446134469158
67,67,0.10790759492831725,0.1,0,277.0,608.0,0.0,595.0,1,267.62772152150484
68,68,-0.7871704762719143,-0.8,1,412.0,874.0,1.0,224.0,1,63.84885711842572
69,69,-0.8469272397290455,-0.8,1,324.0,958.0,1.0,248.0,1,45.92182808128635
70,70,0.7382366589148139,0.7,0,264.0,822.0,0.0,264.0,1,78.52900232555582
71,71,-0.39677228880232596,-0.4,1,364.0,978.0,1.0,528.0,1,180.96831335930221
72,72,0.6531975793309464,0.7,0,261.0,644.0,0.0,275.0,1,104.0407262007161
73,73,-0.4740703933917296,-0.5,1,389.0,678.0,1.0,323.0,1,157.77888198248112
74,74,0.6228044241888855,0.6,0,366.0,532.0,0.0,222.0,1,113.15867274333435
75,75,0.594278731396271,0.6,0,425.0,731.0,0.0,414.0,1,121.71638058111871
76,76,0.756110359756716,0.8,0,265.0,880.0,0.0,405.0,1,73.16689207298519
77,77,-0.1145117509166631,-0.1,1,384.0,523.0,0.0,653.0,0,265.64647472500104
78,78,0.9213813665607837,0.9,0,287.0,980.0,0.0,223.0,1,23.58559003176488
79,79,0.8869979953208149,0.9,0,262.0,974.0,0.0,254.0,1,33.90060140375552
80,80,-0.6906103300266,-0.7,1,326.0,957.0,1.0,377.0,1,92.81690099202
81,81,-0.5773782741608375,-0.6,1,396.0,941.0,1.0,463.0,1,126.78651775174873
82,82,0.5446252421890829,0.5,0,250.0,660.0,0.0,540.0,1,136.61242734327513
83,83,-0.3140310977246823,-0.3,1,384.0,654.0,1.0,612.0,1,205.7906706825953
84,84,0.014455142669285603,0.0,0,358.0,974.0,0.0,1048.0,1,295.6634571992143
85,85,0.8162282452174656,0.8,0,423.0,761.0,0.0,306.0,1,55.13152643476032
86,86,0.8422495940896968,0.8,0,470.0,629.0,0.0,211.0,1,47.32512177309096
87,87,-0.035084768960528034,-0.0,1,395.0,542.0,1.0,1153.0,1,289.4745693118416
88,88,-0.13965327465777366,-0.1,1,417.0,641.0,1.0,1032.0,1,258.1040176026679
89,89,0.5429448526510323,0.5,0,350.0,952.0,0.0,438.0,1,137.1165442046903
90,90,-0.17914152032904207,-0.2,1,281.0,843.0,0.0,456.0,0,246.2575439012874
91,91,0.7953064760527861,0.8,0,414.0,989.0,0.0,227.0,1,61.40805718416416
92,92,0.7557295762372918,0.8,0,430.0,681.0,0.0,249.0,1,73.28112712881247
93,93,-0.07001398794177649,-0.1,1,420.0,529.0,1.0,1861.0,1,278.99580361746706
94,94,-0.44636879773237625,-0.4,1,416.0,549.0,1.0,415.0,1,166.08936068028711
95,95,0.43034888966424867,0.4,0,259.0,866.0,0.0,495.0,1,170.8953331007254
96,96,-0.8211014137774217,-0.8,1,387.0,700.0,1.0,303.0,1,53.66957586677348
97,97,0.6862060992812047,0.7,0,376.0,514.0,0.0,250.0,1,94.1381702156386
98,98,0.786147140789629,0.8,0,267.0,514.0,0.0,219.0,1,64.1558577631113
99,99,0.3045212312293393,0.3,0,388.0,670.0,0.0,372.0,1,208.64363063119822
100,100,-0.9805881505228293,-1.0,1,472.0,810.0,1.0,238.0,1,5.823554843151202
101,101,0.21002655481687627,0.2,0,398.0,542.0,0.0,780.0,1,236.9920335549371
102,102,0.07518289718367455,0.1,0,336.0,846.0,1.0,558.0,0,277.4451308448976
103,103,-0.479625500525928,-0.5,1,476.0,645.0,1.0,419.0,1,156.1123498422216
104,104,0.6963916630150635,0.7,0,265.0,922.0,0.0,273.0,1,91.08250109548095
105,105,0.4418884738386466,0.4,0,320.0,502.0,0.0,458.0,1,167.43345784840602
106,106,-0.5137877791435386,-0.5,1,284.0,685.0,1.0,351.0,1,145.86366625693842
107,107,0.4140140050536161,0.4,0,261.0,548.0,0.0,391.0,1,175.79579848391518
108,108,-0.9855927831456817,-1.0,1,256.0,777.0,1.0,167.0,1,4.322165056295502
109,109,-0.27715929647928284,-0.3,1,427.0,600.0,1.0,753.0,1,216.85221105621514
110,110,0.7279711443643175,0.7,0,363.0,814.0,0.0,463.0,1,81.60865669070473
111,111,-0.0896362137361526,-0.1,1,388.0,784.0,1.0,988.0,1,273.1091358791542
112,112,0.04206049251593513,0.0,0,368.0,712.0,0.0,540.0,1,287.3818522452195
113,113,-0.6323707074679834,-0.6,1,351.0,639.0,1.0,370.0,1,110.28878775960497
114,114,0.7588099807766584,0.8,0,440.0,698.0,0.0,612.0,1,72.35700576700248
115,115,0.4481845805064226,0.4,0,467.0,578.0,0.0,605.0,1,165.54462584807322
116,116,0.014063432967550638,0.0,0,419.0,823.0,1.0,618.0,0,295.7809701097348
117,117,0.7999689608857206,0.8,0,429.0,925.0,0.0,336.0,1,60.009311734283834
118,118,-0.0366838078211047,-0.0,1,300.0,964.0,0.0,1866.0,0,288.9948576536686
119,119,0.9790968778086284,1.0,0,388.0,891.0,0.0,201.0,1,6.270936657411474
120,120,0.48257841725600437,0.5,0,353.0,774.0,0.0,483.0,1,155.22647482319869
121,121,-0.7281263451268314,-0.7,1,257.0,860.0,1.0,333.0,1,81.56209646195059
122,122,-0.10892618055877112,-0.1,1,383.0,983.0,1.0,1154.0,1,267.3221458323687
123,123,0.01618985832768005,0.0,0,420.0,848.0,1.0,972.0,0,295.14304250169596
124,124,-0.8479109430345764,-0.8,1,457.0,682.0,1.0,471.0,1,45.62671708962709
125,125,-0.3504268359967835,-0.4,1,359.0,544.0,1.0,407.0,1,194.87194920096496
126,126,-0.636992345054179,-0.6,1,394.0,501.0,1.0,385.0,1,108.9022964837463
127,127,-0.5036320019845677,-0.5,1,332.0,741.0,1.0,377.0,1,148.9103994046297
128,128,0.30045722795862817,0.3,0,292.0,518.0,0.0,540.0,1,209.86283161241155
129,129,-0.7507778891917956,-0.8,1,383.0,882.0,1.0,275.0,1,74.76663324246134
130,130,0.42007163258513147,0.4,0,388.0,719.0,0.0,393.0,1,173.97851022446056
131,131,0.97275695017137,1.0,0,455.0,512.0,0.0,163.0,1,8.172914948589005
132,132,0.7996285146752113,0.8,0,444.0,983.0,0.0,233.0,1,60.1114455974366
133,133,0.029674262356903514,0.0,0,396.0,963.0,0.0,901.0,1,291.09772129292895
134,134,-0.18715004077202635,-0.2,1,382.0,789.0,1.0,809.0,1,243.8549877683921
135,135,-0.13105267061609904,-0.1,1,340.0,569.0,1.0,1141.0,1,260.6841988151703
136,136,0.37770054558163246,0.4,0,421.0,793.0,0.0,396.0,1,186.68983632551027
137,137,0.011997963860638672,0.0,0,331.0,803.0,1.0,916.0,0,296.4006108418084
138,138,-0.5306940594256049,-0.5,1,270.0,589.0,1.0,351.0,1,140.79178217231853
139,139,-0.3827774357051834,-0.4,1,354.0,999.0,1.0,447.0,1,185.16676928844498
140,140,0.5389544098916248,0.5,0,262.0,773.0,0.0,375.0,1,138.31367703251257
141,141,-0.4148358918523547,-0.4,1,417.0,804.0,1.0,449.0,1,175.54923244429358
142,142,-0.02535662922828319,-0.0,1,259.0,766.0,1.0,1645.0,1,292.39301123151506
143,143,-0.12734093107207967,-0.1,1,321.0,523.0,1.0,2096.0,1,261.7977206783761
144,144,0.28988311854872917,0.3,0,470.0,825.0,0.0,675.0,1,213.03506443538126
145,145,-0.7016519542845241,-0.7,1,451.0,661.0,1.0,338.0,1,89.50441371464277
146,146,0.6838708113894882,0.7,0,345.0,544.0,0.0,581.0,1,94.83875658315353
147,147,0.6366054556469967,0.6,0,483.0,571.0,0.0,416.0,1,109.018363305901
148,148,0.1977408975808237,0.2,0,368.0,552.0,0.0,470.0,1,240.6777307257529
149,149,-0.20537905471064444,-0.2,1,442.0,628.0,1.0,780.0,1,238.38628358680666
150,150,0.6234865121701882,0.6,0,277.0,853.0,0.0,280.0,1,112.95404634894352
151,151,-0.5507173422152445,-0.6,1,469.0,999.0,1.0,432.0,1,134.78479733542665
152,152,-0.8423792374316867,-0.8,1,343.0,666.0,1.0,201.0,1,47.28622877049398
153,153,-0.13914785864239154,-0.1,1,350.0,684.0,1.0,436.0,1,258.25564240728255
154,154,-0.6332943920768177,-0.6,1,250.0,536.0,1.0,314.0,1,110.0116823769547
155,155,-0.2596141818161217,-0.3,1,408.0,588.0,1.0,784.0,1,222.11574545516348
156,156,0.5745832809527718,0.6,0,433.0,685.0,0.0,462.0,1,127.62501571416847
157,157,0.07549724324950224,0.1,0,366.0,728.0,1.0,746.0,0,277.35082702514933
158,158,-0.9274551073247557,-0.9,1,364.0,863.0,1.0,273.0,1,21.7634678025733
159,159,-0.9608102069398319,-1.0,1,478.0,557.0,1.0,165.0,1,11.756937918050436
160,160,0.7996126394929599,0.8,0,447.0,768.0,0.0,295.0,1,60.11620815211203
161,161,-0.3867216813039882,-0.4,1,400.0,771.0,1.0,519.0,1,183.98349560880354
162,162,0.0412330554179412,0.0,0,347.0,573.0,1.0,1350.0,0,287.63008337461764
163,163,-0.6777749907060786,-0.7,1,260.0,733.0,1.0,597.0,1,96.66750278817642
164,164,-0.5431131661869666,-0.5,1,485.0,880.0,1.0,445.0,1,137.06605014391002
165,165,0.9472241743199299,0.9,0,298.0,567.0,0.0,385.0,1,15.832747704021033
166,166,0.7266444155375962,0.7,0,358.0,637.0,0.0,395.0,1,82.00667533872115
167,167,-0.9540374915066532,-1.0,1,342.0,537.0,1.0,331.0,1,13.788752548004046
168,168,0.6490368900636605,0.6,0,438.0,711.0,0.0,381.0,1,105.28893298090185
169,169,-0.46972910332692397,-0.5,1,489.0,985.0,1.0,316.0,1,159.0812690019228
170,170,-0.31103158367828176,-0.3,1,432.0,683.0,1.0,615.0,1,206.69052489651548
171,171,0.8445576163868875,0.8,0,314.0,954.0,0.0,282.0,1,46.63271508393374
172,172,-0.6342706342230546,-0.6,1,413.0,528.0,1.0,349.0,1,109.71880973308362
173,173,0.4079542568687162,0.4,0,379.0,802.0,0.0,469.0,1,177.61372293938513
174,174,-0.686544850551468,-0.7,1,262.0,996.0,1.0,282.0,1,94.0365448345596
175,175,0.8705338409920522,0.9,0,493.0,621.0,0.0,356.0,1,38.83984770238433
176,176,-0.07318750334944535,-0.1,1,356.0,569.0,1.0,1695.0,1,278.04374899516637
177,177,0.40673612108343327,0.4,0,391.0,643.0,0.0,576.0,1,177.97916367497
178,178,-0.5287591747989313,-0.5,1,355.0,590.0,1.0,585.0,1,141.3722475603206
179,179,0.836752968031917,0.8,0,383.0,751.0,0.0,186.0,1,48.974109590424895
180,180,0.1463102014845834,0.1,0,393.0,813.0,0.0,804.0,1,256.106939554625
181,181,-0.12762852231921373,-0.1,1,300.0,618.0,1.0,2172.0,1,261.7114433042359
182,182,-0.02538605287198248,-0.0,1,306.0,797.0,0.0,787.0,0,292.38418413840526
183,183,0.2323907422688467,0.2,0,488.0,800.0,0.0,622.0,1,230.282777319346
184,184,0.5882856972580452,0.6,0,482.0,531.0,0.0,477.0,1,123.51429082258643
185,185,-0.886967347128544,-0.9,1,392.0,797.0,1.0,211.0,1,33.909795861436805
186,186,0.5212766034505316,0.5,0,256.0,859.0,0.0,585.0,1,143.61701896484053
187,187,-0.6543085420687615,-0.7,1,373.0,879.0,1.0,308.0,1,103.70743737937154
188,188,0.09241468602830771,0.1,0,386.0,580.0,0.0,664.0,1,272.2755941915077
189,189,-0.3085621932536853,-0.3,1,284.0,736.0,1.0,580.0,1,207.43134202389442
190,190,0.5872016663955419,0.6,0,402.0,894.0,0.0,514.0,1,123.83950008133742
191,191,0.22393797267875826,0.2,0,347.0,864.0,0.0,449.0,1,232.8186081963725
192,192,0.5185318855873107,0.5,0,285.0,872.0,0.0,513.0,1,144.4404343238068
193,193,-0.9472852810423058,-0.9,1,442.0,968.0,1.0,310.0,1,15.814415687308259
194,194,0.6962420225516828,0.7,0,372.0,881.0,0.0,767.0,1,91.12739323449517
195,195,-0.06610703329495093,-0.1,1,390.0,925.0,1.0,605.0,1,280.1678900115147
196,196,-0.9458111890653396,-0.9,1,411.0,575.0,1.0,184.0,1,16.25664328039813
197,197,0.6846523717670352,0.7,0,397.0,903.0,0.0,260.0,1,94.60428846988944
198,198,0.45712315984161833,0.5,0,367.0,791.0,0.0,482.0,1,162.8630520475145
199,199,0.7286701176715376,0.7,0,493.0,974.0,0.0,153.0,1,81.39896469853873
200,200,-0.8121023161457563,-0.8,1,396.0,815.0,1.0,229.0,1,56.3693051562731
201,201,0.3069031280972916,0.3,0,486.0,555.0,0.0,599.0,1,207.92906157081254
202,202,-0.896836190797514,-0.9,1,294.0,758.0,1.0,248.0,1,30.949142760745808
203,203,-0.29103332164613027,-0.3,1,409.0,624.0,1.0,477.0,1,212.6900035061609
204,204,0.48278188866834415,0.5,0,345.0,655.0,0.0,430.0,1,155.16543339949675
205,205,-0.9873434386489037,-1.0,1,444.0,620.0,1.0,186.0,1,3.796968405328882
206,206,-0.06711239881019915,-0.1,1,475.0,796.0,1.0,1829.0,1,279.86628035694025
207,207,0.14758212139877713,0.1,0,309.0,961.0,0.0,1660.0,1,255.72536358036686
208,208,-0.5331299713466271,-0.5,1,441.0,521.0,1.0,338.0,1,140.06100859601187
209,209,0.05897470244329672,0.1,0,400.0,537.0,0.0,603.0,1,282.307589267011
210,210,-0.271876148268819,-0.3,1,323.0,814.0,1.0,513.0,1,218.4371555193543
211,211,0.5376356091122816,0.5,0,342.0,890.0,0.0,548.0,1,138.70931726631554
212,212,-0.30103769920495127,-0.3,1,389.0,862.0,1.0,499.0,1,209.68869023851462
213,213,-0.9603629357608165,-1.0,1,477.0,994.0,1.0,179.0,1,11.891119271755034
214,214,0.5004596636101253,0.5,0,395.0,592.0,0.0,283.0,1,149.86210091696242
215,215,0.6748347044436447,0.7,0,304.0,956.0,0.0,250.0,1,97.5495886669066
216,216,0.022230504508841786,0.0,0,469.0,744.0,0.0,847.0,1,293.33084864734747
217,217,-0.5187955616517659,-0.5,1,422.0,815.0,1.0,363.0,1,144.36133150447023
218,218,-0.743984894760169,-0.7,1,499.0,637.0,1.0,204.0,1,76.80453157194928
219,219,-0.31704858994040475,-0.3,1,286.0,748.0,1.0,576.0,1,204.88542301787857
220,220,0.8697788181489465,0.9,0,257.0,896.0,0.0,247.0,1,39.06635455531604
221,221,0.9046655052775652,0.9,0,316.0,695.0,0.0,239.0,1,28.600348416730448
222,222,-0.8975864484322691,-0.9,1,385.0,836.0,1.0,229.0,1,30.724065470319275
223,223,-0.8343701096092158,-0.8,1,321.0,613.0,1.0,266.0,1,49.68896711723527
224,224,0.09361420417544841,0.1,0,391.0,975.0,1.0,1024.0,0,271.9157387473655
225,225,-0.8566181525292453,-0.9,1,276.0,735.0,1.0,269.0,1,43.0145542412264
226,226,-0.660383714007067,-0.7,1,394.0,728.0,1.0,308.0,1,101.8848857978799
227,227,0.5574233165375,0.6,0,371.0,556.0,0.0,333.0,1,132.77300503875
228,228,-0.3756630241803123,-0.4,1,342.0,925.0,1.0,363.0,1,187.30109274590632
229,229,0.8674915647109083,0.9,0,291.0,711.0,0.0,248.0,1,39.75253058672752
230,230,-0.6244694041261236,-0.6,1,305.0,774.0,1.0,301.0,1,112.65917876216291
231,231,0.30482593084610854,0.3,0,444.0,556.0,0.0,670.0,1,208.55222074616745
232,232,-0.49366902552584446,-0.5,1,276.0,545.0,1.0,409.0,1,151.89929234224667
233,233,-0.6346000389794673,-0.6,1,491.0,550.0,1.0,409.0,1,109.61998830615983
234,234,0.32988562382325215,0.3,0,253.0,764.0,0.0,373.0,1,201.03431285302435
235,235,0.35382560425490195,0.4,0,408.0,574.0,0.0,468.0,1,193.8523187235294
236,236,-0.30149992889206323,-0.3,1,379.0,932.0,1.0,619.0,1,209.55002133238102
237,237,-0.23539656398437492,-0.2,1,368.0,509.0,1.0,973.0,1,229.38103080468753
238,238,-0.06879688387125182,-0.1,1,369.0,731.0,0.0,2370.0,0,279.3609348386245
239,239,0.43359397384660125,0.4,0,381.0,905.0,0.0,414.0,1,169.92180784601962
240,240,0.5448352390312969,0.5,0,283.0,679.0,0.0,388.0,1,136.54942829061093
241,241,0.971251569292763,1.0,0,381.0,798.0,0.0,221.0,1,8.624529212171094
242,242,0.18139552951724203,0.2,0,393.0,928.0,0.0,729.0,1,245.5813411448274
243,243,0.7880110601517669,0.8,0,343.0,682.0,0.0,225.0,1,63.59668195446992
244,244,-0.36302232763405806,-0.4,1,439.0,838.0,1.0,573.0,1,191.0933017097826
245,245,-0.8777551807255486,-0.9,1,490.0,955.0,1.0,175.0,1,36.67344578233542
246,246,-0.1904395138185493,-0.2,1,317.0,643.0,1.0,490.0,1,242.86814585443523
247,247,0.9958044950968299,1.0,0,255.0,967.0,0.0,258.0,1,1.2586514709510332
248,248,-0.823117051938391,-0.8,1,343.0,577.0,1.0,320.0,1,53.06488441848269
249,249,-0.3377880480087605,-0.3,1,423.0,801.0,1.0,596.0,1,198.66358559737185
250,250,0.6665218193483355,0.7,0,432.0,587.0,0.0,431.0,1,100.04345419549934
251,251,-0.22398833763111647,-0.2,1,399.0,672.0,1.0,1029.0,1,232.80349871066505
252,252,-0.8477452378088419,-0.8,1,385.0,744.0,1.0,451.0,1,45.67642865734742
253,253,0.40060309574104447,0.4,0,408.0,720.0,0.0,742.0,1,179.81907127768665
254,254,-0.7049820319933384,-0.7,1,295.0,701.0,1.0,264.0,1,88.50539040199847
255,255,-0.48052028463417407,-0.5,1,323.0,797.0,1.0,680.0,1,155.84391460974777
256,256,0.04666843672861409,0.0,0,489.0,784.0,1.0,537.0,0,285.99946898141576
257,257,0.4445233145774252,0.4,0,322.0,595.0,0.0,583.0,1,166.64300562677244
258,258,0.33415230302918864,0.3,0,274.0,824.0,0.0,412.0,1,199.7543090912434
259,259,0.0034192981670571054,0.0,0,408.0,991.0,0.0,851.0,1,298.97421054988286
260,260,-0.33264244471824345,-0.3,1,492.0,520.0,1.0,718.0,1,200.20726658452696
261,261,0.2536759255610437,0.3,0,313.0,614.0,0.0,883.0,1,223.8972223316869
262,262,0.6952315448396675,0.7,0,481.0,920.0,0.0,319.0,1,91.43053654809974
263,263,0.8303141383398263,0.8,0,299.0,987.0,0.0,224.0,1,50.90575849805212
264,264,-0.8807522606426794,-0.9,1,364.0,751.0,1.0,195.0,1,35.77432180719617
265,265,-0.6783000058031023,-0.7,1,378.0,585.0,1.0,437.0,1,96.50999825906929
266,266,0.667484551059093,0.7,0,439.0,937.0,0.0,274.0,1,99.7546346822721
267,267,0.10483166801365673,0.1,0,327.0,588.0,0.0,865.0,1,268.550499595903
268,268,0.4337514179552895,0.4,0,451.0,977.0,0.0,452.0,1,169.87457461341316
269,269,-0.3648315033293197,-0.4,1,496.0,554.0,1.0,490.0,1,190.5505490012041
270,270,-0.2871907571295773,-0.3,1,271.0,857.0,1.0,542.0,1,213.8427728611268
271,271,-0.12669927814549165,-0.1,1,290.0,852.0,1.0,958.0,1,261.9902165563525
272,272,0.21082654427790648,0.2,0,459.0,841.0,0.0,800.0,1,236.75203671662806
273,273,0.9230570145524581,0.9,0,274.0,626.0,0.0,300.0,1,23.082895634262556
274,274,0.3802714328054768,0.4,0,440.0,810.0,0.0,400.0,1,185.91857015835694
275,275,0.3375356415966244,0.3,0,300.0,656.0,0.0,394.0,1,198.73930752101268
276,276,-0.32535373717637617,-0.3,1,354.0,737.0,1.0,719.0,1,202.39387884708714
277,277,0.2537556313715239,0.3,0,488.0,557.0,0.0,635.0,1,223.87331058854284
278,278,-0.6314952581276911,-0.6,1,373.0,894.0,1.0,513.0,1,110.55142256169266
279,279,0.8650739106688838,0.9,0,464.0,651.0,0.0,205.0,1,40.47782679933485
280,280,-0.7044524021417791,-0.7,1,451.0,971.0,1.0,288.0,1,88.66427935746628
281,281,0.24746890903257168,0.2,0,340.0,747.0,0.0,1633.0,1,225.7593272902285
282,282,0.800941260442052,0.8,0,306.0,606.0,0.0,368.0,1,59.71762186738439
283,283,0.8044986824946003,0.8,0,330.0,915.0,0.0,265.0,1,58.650395251619905
284,284,-0.4577533674849068,-0.5,1,385.0,962.0,1.0,493.0,1,162.67398975452795
285,285,-0.5919967745505395,-0.6,1,308.0,807.0,1.0,355.0,1,122.40096763483817
286,286,-0.11129193512813651,-0.1,1,432.0,931.0,1.0,2477.0,1,266.61241946155906
287,287,0.2505405788334847,0.3,0,488.0,504.0,0.0,598.0,1,224.83782634995458
288,288,-0.5549773559675637,-0.6,1,472.0,762.0,1.0,376.0,1,133.5067932097309
289,289,0.015369946437654436,0.0,0,409.0,966.0,1.0,775.0,0,295.38901606870365
290,290,-0.7195473370211694,-0.7,1,439.0,552.0,1.0,259.0,1,84.1357988936492
291,291,0.5654111917992206,0.6,0,456.0,763.0,0.0,371.0,1,130.37664246023382
292,292,0.04927621914988478,0.0,0,455.0,646.0,0.0,1899.0,1,285.2171342550346
293,293,0.5908237818108664,0.6,0,274.0,948.0,0.0,578.0,1,122.7528654567401
294,294,0.8126754267451564,0.8,0,344.0,616.0,0.0,320.0,1,56.19737197645309
295,295,-0.17153987565917905,-0.2,1,378.0,625.0,1.0,1197.0,1,248.5380373022463
296,296,-0.6230011896601695,-0.6,1,491.0,670.0,1.0,699.0,1,113.09964310194916
297,297,0.35186164276441523,0.4,0,325.0,616.0,0.0,649.0,1,194.44150717067544
298,298,-0.4485574861937387,-0.4,1,395.0,948.0,1.0,397.0,1,165.43275414187838
299,299,-0.4924836522473375,-0.5,1,400.0,833.0,1.0,407.0,1,152.25490432579875
300,300,-0.3354515775466056,-0.3,1,282.0,716.0,1.0,452.0,1,199.36452673601832
301,301,0.13444165546379616,0.1,0,358.0,865.0,1.0,867.0,0,259.66750336086113
302,302,-0.7361298170370691,-0.7,1,489.0,969.0,1.0,362.0,1,79.16105488887925
303,303,-0.3343460731734471,-0.3,1,302.0,586.0,1.0,662.0,1,199.69617804796587
304,304,-0.3893252725017202,-0.4,1,468.0,965.0,1.0,737.0,1,183.20241824948394
305,305,-0.4703895798264046,-0.5,1,442.0,851.0,1.0,347.0,1,158.8831260520786
306,306,-0.6400047825984898,-0.6,1,427.0,692.0,1.0,301.0,1,107.99856522045306
307,307,-0.5118685476788252,-0.5,1,356.0,849.0,1.0,505.0,1,146.43943569635246
308,308,-0.4967898143028193,-0.5,1,274.0,901.0,1.0,545.0,1,150.9630557091542
309,309,-0.26893176949218134,-0.3,1,400.0,537.0,1.0,483.0,1,219.3204691523456
310,310,-0.9063361878713756,-0.9,1,281.0,807.0,1.0,302.0,1,28.09914363858732
311,311,0.06869246023639919,0.1,0,357.0,955.0,0.0,908.0,1,279.39226192908023
312,312,0.37293156840285,0.4,0,309.0,989.0,0.0,402.0,1,188.120529479145
313,313,-0.09926713936434761,-0.1,1,337.0,654.0,1.0,1069.0,1,270.21985819069573
314,314,0.5151861320367808,0.5,0,302.0,611.0,0.0,347.0,1,145.44416038896577
315,315,0.795131601650217,0.8,0,252.0,528.0,0.0,270.0,1,61.460519504934894
316,316,0.3895069751970788,0.4,0,392.0,687.0,0.0,391.0,1,183.14790744087637
317,317,0.7740185207989871,0.8,0,364.0,865.0,0.0,271.0,1,67.79444376030386
318,318,-0.720029706276452,-0.7,1,376.0,911.0,1.0,883.0,1,83.9910881170644
319,319,-0.2732088234903425,-0.3,1,305.0,892.0,1.0,713.0,1,218.03735295289727
320,320,-0.33664648621891313,-0.3,1,392.0,964.0,1.0,454.0,1,199.00605413432606
321,321,0.5759697941189978,0.6,0,353.0,736.0,0.0,461.0,1,127.20906176430064
322,322,0.77067724001662,0.8,0,428.0,948.0,0.0,264.0,1,68.79682799501401
323,323,0.6388553461478901,0.6,0,305.0,701.0,0.0,394.0,1,108.34339615563297
324,324,0.9756328604038045,1.0,0,333.0,531.0,0.0,166.0,1,7.310141878858656
325,325,-0.774464166462568,-0.8,1,496.0,864.0,1.0,260.0,1,67.6607500612296
326,326,-0.825679457759299,-0.8,1,455.0,822.0,1.0,243.0,1,52.296162672210315
327,327,0.5245824293610062,0.5,0,328.0,988.0,0.0,334.0,1,142.62527119169815
328,328,-0.6436332063913215,-0.6,1,341.0,907.0,1.0,262.0,1,106.91003808260355
329,329,-0.032400558549714464,-0.0,1,433.0,741.0,1.0,876.0,1,290.27983243508567
330,330,0.32151432706121574,0.3,0,322.0,817.0,0.0,941.0,1,203.54570188163527
331,331,0.4763575501402657,0.5,0,471.0,783.0,0.0,306.0,1,157.0927349579203
332,332,-0.8450680432465907,-0.8,1,321.0,956.0,1.0,203.0,1,46.4795870260228
333,333,0.6932232167713379,0.7,0,318.0,748.0,0.0,304.0,1,92.03303496859863
334,334,0.4792555873651456,0.5,0,415.0,555.0,0.0,390.0,1,156.2233237904563
335,335,-0.15777521042854814,-0.2,1,352.0,962.0,1.0,926.0,1,252.66743687143557
336,336,-0.3998707564699151,-0.4,1,252.0,774.0,1.0,384.0,1,180.03877305902546
337,337,-0.5967900502115797,-0.6,1,335.0,710.0,1.0,405.0,1,120.96298493652608
338,338,0.015137573129330839,0.0,0,310.0,986.0,1.0,934.0,0,295.45872806120076
339,339,0.4310314818496963,0.4,0,309.0,584.0,0.0,497.0,1,170.69055544509112
340,340,0.559462927273308,0.6,0,275.0,502.0,0.0,343.0,1,132.1611218180076
341,341,-0.7057246650769149,-0.7,1,297.0,726.0,1.0,317.0,1,88.28260047692554
342,342,-0.9386877833530016,-0.9,1,257.0,590.0,1.0,103.0,1,18.393664994099513
343,343,0.38181885133472115,0.4,0,297.0,984.0,0.0,399.0,1,185.45434459958366
344,344,0.10135555885999237,0.1,0,482.0,685.0,0.0,933.0,1,269.59333234200227
345,345,-0.5215496421986814,-0.5,1,343.0,712.0,1.0,405.0,1,143.5351073403956
346,346,0.19797259916871424,0.2,0,464.0,869.0,0.0,457.0,1,240.60822024938574
347,347,0.6660605526195504,0.7,0,493.0,685.0,0.0,302.0,1,100.18183421413487
348,348,0.3061106546442909,0.3,0,462.0,846.0,0.0,782.0,1,208.16680360671273
349,349,-0.12534651857029022,-0.1,1,424.0,697.0,1.0,1269.0,1,262.39604442891294
350,350,0.9526904233681501,1.0,0,412.0,627.0,0.0,221.0,1,14.19287298955496
351,351,0.16881074622761183,0.2,0,452.0,728.0,0.0,880.0,1,249.35677613171646
352,352,0.8930754939924905,0.9,0,363.0,664.0,0.0,263.0,1,32.07735180225284
353,353,0.6069900225262315,0.6,0,474.0,535.0,0.0,331.0,1,117.90299324213056
354,354,-0.7268457948911897,-0.7,1,377.0,812.0,1.0,221.0,1,81.94626153264308
355,355,0.029697147042952343,0.0,0,435.0,762.0,1.0,793.0,0,291.0908558871143
356,356,-0.17696901079430183,-0.2,1,293.0,984.0,1.0,533.0,1,246.90929676170944
357,357,-0.019765305758634,-0.0,1,321.0,782.0,0.0,1907.0,0,294.0704082724098
358,358,0.4275171810325593,0.4,0,333.0,916.0,0.0,501.0,1,171.7448456902322
359,359,-0.8122718072097757,-0.8,1,383.0,711.0,1.0,276.0,1,56.31845783706731
360,360,0.9094869933726306,0.9,0,384.0,717.0,0.0,129.0,1,27.153901988210816
361,361,0.3621356851673634,0.4,0,379.0,966.0,0.0,585.0,1,191.35929444979098
362,362,0.4536938414347689,0.5,0,463.0,712.0,0.0,375.0,1,163.89184756956934
363,363,0.7727238977471216,0.8,0,483.0,510.0,0.0,317.0,1,68.18283067586353
364,364,0.5252891993539717,0.5,0,392.0,883.0,0.0,605.0,1,142.4132401938085
365,365,0.7094631123269544,0.7,0,413.0,705.0,0.0,392.0,1,87.16106630191369
366,366,0.21928864544360893,0.2,0,376.0,520.0,0.0,634.0,1,234.21340636691733
367,367,0.5068519943867398,0.5,0,367.0,827.0,0.0,466.0,1,147.94440168397807
368,368,0.49468749285476576,0.5,0,438.0,823.0,0.0,369.0,1,151.59375214357027
369,369,-0.037376483789250736,-0.0,1,487.0,973.0,1.0,1070.0,1,288.7870548632248
370,370,0.34035387219734115,0.3,0,470.0,891.0,0.0,529.0,1,197.89383834079766
371,371,0.45854755280288106,0.5,0,426.0,896.0,0.0,398.0,1,162.43573415913568
372,372,-0.7683841431023639,-0.8,1,394.0,843.0,1.0,183.0,1,69.48475706929082
373,373,0.8659523165291547,0.9,0,266.0,834.0,0.0,130.0,1,40.21430504125358
374,374,-0.024288400538833077,-0.0,1,490.0,686.0,0.0,824.0,0,292.71347983835005
375,375,0.5729037056746464,0.6,0,372.0,522.0,0.0,766.0,1,128.12888829760607
376,376,0.18221700660710938,0.2,0,300.0,708.0,0.0,422.0,1,245.33489801786718
377,377,0.4528130200770004,0.5,0,313.0,650.0,0.0,567.0,1,164.15609397689988
378,378,-0.35116006613909345,-0.4,1,331.0,693.0,1.0,416.0,1,194.65198015827195
379,379,0.1512353741991701,0.2,0,498.0,615.0,0.0,907.0,1,254.62938774024897
380,380,0.6829304370961213,0.7,0,456.0,558.0,0.0,396.0,1,95.1208688711636
381,381,-0.35279491390861417,-0.4,1,412.0,638.0,1.0,620.0,1,194.16152582741574
382,382,-0.4895685697151708,-0.5,1,252.0,778.0,1.0,430.0,1,153.12942908544875
383,383,-0.5803399489152838,-0.6,1,255.0,821.0,1.0,404.0,1,125.89801532541485
384,384,-0.48534288212608456,-0.5,1,258.0,628.0,1.0,494.0,1,154.39713536217462
385,385,-0.26250964575913605,-0.3,1,372.0,850.0,1.0,438.0,1,221.24710627225917
386,386,0.1186376965120719,0.1,0,368.0,575.0,1.0,787.0,0,264.4086910463784
387,387,0.46920052184027017,0.5,0,358.0,903.0,0.0,409.0,1,159.23984344791896
388,388,-0.21997021604827904,-0.2,1,273.0,939.0,1.0,908.0,1,234.0089351855163
389,389,0.8976134527366499,0.9,0,380.0,635.0,0.0,475.0,1,30.715964179005017
390,390,-0.6118072684515088,-0.6,1,417.0,629.0,1.0,294.0,1,116.45781946454736
391,391,-0.27749984378027803,-0.3,1,444.0,510.0,1.0,786.0,1,216.7500468659166
392,392,0.7234056738667418,0.7,0,309.0,946.0,0.0,245.0,1,82.97829783997746
393,393,-0.48622201372694485,-0.5,1,300.0,518.0,1.0,582.0,1,154.13339588191656
394,394,-0.9854048861046145,-1.0,1,453.0,581.0,1.0,306.0,1,4.378534168615644
395,395,-0.869292221326935,-0.9,1,421.0,805.0,1.0,224.0,1,39.21233360191951
396,396,-0.2284724776071625,-0.2,1,462.0,580.0,1.0,518.0,1,231.45825671785124
397,397,0.4119244720958024,0.4,0,283.0,533.0,0.0,474.0,1,176.42265837125927
398,398,-0.6442427215833835,-0.6,1,292.0,846.0,1.0,1162.0,1,106.72718352498495
399,399,0.5124043938028482,0.5,0,279.0,973.0,0.0,1328.0,1,146.27868185914554
400,400,-0.1238020776740636,-0.1,1,495.0,799.0,1.0,916.0,1,262.85937669778093
401,401,0.2240494402715616,0.2,0,441.0,907.0,0.0,682.0,1,232.78516791853153
402,402,0.7264387954058227,0.7,0,255.0,650.0,0.0,525.0,1,82.0683613782532
403,403,0.23335994768907087,0.2,0,398.0,679.0,0.0,783.0,1,229.99201569327874
404,404,0.2882922940708068,0.3,0,471.0,750.0,0.0,369.0,1,213.51231177875795
405,405,-0.47759043737438556,-0.5,1,472.0,655.0,1.0,383.0,1,156.72286878768432
406,406,-0.053511785214730656,-0.1,1,360.0,908.0,1.0,1702.0,1,283.9464644355808
407,407,0.2847529996794278,0.3,0,252.0,929.0,0.0,699.0,1,214.57410009617166
408,408,0.15132099864491821,0.2,0,255.0,888.0,0.0,487.0,1,254.60370040652452
409,409,0.08705118027899195,0.1,0,302.0,666.0,0.0,1052.0,1,273.8846459163024
410,410,0.5901562056545793,0.6,0,433.0,985.0,0.0,422.0,1,122.95313830362622
411,411,0.8210122084074205,0.8,0,318.0,822.0,0.0,300.0,1,53.696337477773845
412,412,0.9046498203559443,0.9,0,398.0,594.0,0.0,228.0,1,28.605053893216702
413,413,-0.8942209980200209,-0.9,1,405.0,733.0,1.0,602.0,1,31.733700593993742
414,414,-0.3519065113011719,-0.4,1,295.0,573.0,1.0,422.0,1,194.42804660964842
415,415,0.6260266821077412,0.6,0,478.0,782.0,0.0,370.0,1,112.19199536767765
416,416,-0.3894094463747113,-0.4,1,320.0,996.0,1.0,554.0,1,183.1771660875866
417,417,0.4603191963110471,0.5,0,258.0,928.0,0.0,364.0,1,161.90424110668587
418,418,-0.48724626871608256,-0.5,1,292.0,947.0,1.0,451.0,1,153.82611938517522
419,419,0.7587879059950986,0.8,0,342.0,578.0,0.0,310.0,1,72.36362820147042
420,420,-0.30792756211253125,-0.3,1,407.0,913.0,1.0,670.0,1,207.62173136624062
421,421,-0.17148263867690772,-0.2,1,498.0,747.0,1.0,575.0,1,248.5552083969277
422,422,-0.5486975140520709,-0.5,1,283.0,780.0,1.0,407.0,1,135.39074578437874
423,423,-0.3172628148372527,-0.3,1,276.0,999.0,1.0,525.0,1,204.82115554882418
424,424,0.44083123443697647,0.4,0,446.0,724.0,0.0,750.0,1,167.75062966890707
425,425,-0.3280054845229481,-0.3,1,292.0,824.0,1.0,664.0,1,201.59835464311558
426,426,0.9444977734051081,0.9,0,469.0,979.0,0.0,242.0,1,16.65066797846757
427,427,-0.22763350717245578,-0.2,1,258.0,655.0,1.0,897.0,1,231.70994784826325
428,428,0.32177031741955076,0.3,0,301.0,777.0,0.0,632.0,1,203.46890477413478
429,429,0.8795121324827202,0.9,0,340.0,980.0,0.0,380.0,1,36.14636025518394
430,430,0.9625504834347389,1.0,0,260.0,871.0,0.0,139.0,1,11.234854969578322
431,431,0.21349800262445107,0.2,0,465.0,790.0,0.0,875.0,1,235.95059921266468
432,432,-0.5523761401501364,-0.6,1,489.0,718.0,1.0,483.0,1,134.2871579549591
433,433,0.38454177030051606,0.4,0,276.0,567.0,0.0,557.0,1,184.63746890984518
434,434,-0.7449272828339419,-0.7,1,373.0,711.0,1.0,346.0,1,76.52181514981741
435,435,0.1810308072767406,0.2,0,380.0,896.0,0.0,704.0,1,245.69075781697782
436,436,0.7206299133087051,0.7,0,490.0,506.0,0.0,344.0,1,83.81102600738848
437,437,0.6892795409911268,0.7,0,473.0,766.0,0.0,511.0,1,93.21613770266197
438,438,-0.06612297061133843,-0.1,1,262.0,573.0,0.0,1595.0,0,280.1631088165985
439,439,-0.18064665893667353,-0.2,1,302.0,673.0,1.0,465.0,1,245.80600231899794
440,440,0.7536827645476809,0.8,0,267.0,942.0,0.0,261.0,1,73.89517063569573
441,441,-0.7235218920510806,-0.7,1,373.0,849.0,1.0,348.0,1,82.9434323846758
442,442,-0.004102679012835786,-0.0,1,450.0,840.0,0.0,2390.0,0,298.7691962961493
443,443,0.21722839623016266,0.2,0,372.0,614.0,0.0,834.0,1,234.8314811309512
444,444,-0.15198600428510023,-0.2,1,499.0,864.0,1.0,687.0,1,254.40419871446994
445,445,-0.669404080524455,-0.7,1,308.0,781.0,1.0,301.0,1,99.1787758426635
446,446,0.8104773721073415,0.8,0,327.0,736.0,0.0,387.0,1,56.85678836779755
447,447,-0.9315154994763315,-0.9,1,343.0,675.0,1.0,272.0,1,20.54535015710055
448,448,-0.6541282863300348,-0.7,1,377.0,934.0,1.0,379.0,1,103.76151410098954
449,449,0.9877952996471824,1.0,0,451.0,900.0,0.0,279.0,1,3.6614101058452864
450,450,-0.7480849357173689,-0.7,1,497.0,745.0,1.0,248.0,1,75.57451928478933
451,451,-0.12119223773350196,-0.1,1,328.0,790.0,1.0,542.0,1,263.6423286799494
452,452,0.28061417394742083,0.3,0,331.0,890.0,0.0,599.0,1,215.81574781577376
453,453,0.8550259801557223,0.9,0,367.0,637.0,0.0,496.0,1,43.49220595328332
454,454,0.4511254813315275,0.5,0,274.0,717.0,0.0,349.0,1,164.66235560054173
455,455,-0.6450718647369935,-0.6,1,309.0,749.0,1.0,362.0,1,106.47844057890194
456,456,-0.03558344939615732,-0.0,1,319.0,738.0,0.0,713.0,0,289.3249651811528
457,457,0.3069575211950668,0.3,0,371.0,741.0,0.0,428.0,1,207.91274364147995
458,458,0.5825559630474577,0.6,0,452.0,769.0,0.0,309.0,1,125.23321108576269
459,459,0.8513026452308188,0.9,0,394.0,866.0,0.0,300.0,1,44.60920643075437
460,460,-0.3763367040948036,-0.4,1,326.0,990.0,1.0,454.0,1,187.09898877155894
461,461,0.6678662759239182,0.7,0,250.0,981.0,0.0,459.0,1,99.64011722282453
462,462,0.4024483366114664,0.4,0,361.0,843.0,0.0,496.0,1,179.26549901656009
463,463,0.8087379941308137,0.8,0,355.0,945.0,0.0,490.0,1,57.378601760755885
464,464,0.09491199847529397,0.1,0,408.0,622.0,0.0,1500.0,1,271.5264004574118
465,465,-0.3192305603850909,-0.3,1,434.0,745.0,1.0,411.0,1,204.23083188447274
466,466,-0.009396241551481,-0.0,1,484.0,691.0,1.0,1875.0,1,297.1811275345557
467,467,0.0697549051622881,0.1,0,407.0,782.0,0.0,3551.0,1,279.07352845131356
468,468,-0.4651344678504652,-0.5,1,257.0,764.0,1.0,359.0,1,160.45965964486044
469,469,-0.9647291225220815,-1.0,1,266.0,859.0,1.0,295.0,1,10.581263243375538
470,470,-0.305785269765773,-0.3,1,266.0,751.0,1.0,473.0,1,208.2644190702681
471,471,0.5227844387127225,0.5,0,405.0,904.0,0.0,331.0,1,143.16466838618325
472,472,-0.06789115747237973,-0.1,1,494.0,705.0,1.0,571.0,1,279.6326527582861
473,473,0.6172144949404634,0.6,0,359.0,773.0,0.0,438.0,1,114.83565151786097
474,474,0.8170313913233092,0.8,0,490.0,943.0,0.0,177.0,1,54.89058260300725
475,475,0.4093078302223383,0.4,0,418.0,579.0,0.0,483.0,1,177.2076509332985
476,476,0.42442325403943837,0.4,0,458.0,643.0,0.0,419.0,1,172.67302378816848
477,477,0.5917814941676041,0.6,0,351.0,983.0,0.0,256.0,1,122.46555174971878
478,478,-0.5152240544966926,-0.5,1,272.0,755.0,1.0,413.0,1,145.4327836509922
479,479,-0.21509274786389465,-0.2,1,419.0,621.0,1.0,570.0,1,235.4721756408316
480,480,-0.8611283791288873,-0.9,1,298.0,665.0,1.0,197.0,1,41.66148626133381
481,481,-0.24661979505852627,-0.2,1,410.0,906.0,1.0,504.0,1,226.01406148244212
482,482,-0.7119417500671779,-0.7,1,364.0,977.0,1.0,269.0,1,86.41747497984665
483,483,0.6335361421703105,0.6,0,365.0,546.0,0.0,499.0,1,109.93915734890685
484,484,0.2553177416205068,0.3,0,283.0,513.0,0.0,574.0,1,223.40467751384796
485,485,-0.8828000149420432,-0.9,1,277.0,771.0,1.0,202.0,1,35.159995517387046
486,486,0.6200546452228928,0.6,0,427.0,520.0,0.0,393.0,1,113.98360643313217
487,487,0.026417214873594164,0.0,0,400.0,910.0,0.0,1840.0,1,292.07483553792173
488,488,-0.6205202763594682,-0.6,1,304.0,552.0,1.0,314.0,1,113.84391709215956
489,489,0.6392721287999219,0.6,0,434.0,676.0,0.0,440.0,1,108.21836136002344
490,490,0.770037957987121,0.8,0,326.0,884.0,0.0,300.0,1,68.98861260386369
491,491,0.3720231770338498,0.4,0,479.0,662.0,0.0,549.0,1,188.39304688984507
492,492,-0.5303709606310241,-0.5,1,484.0,673.0,1.0,393.0,1,140.88871181069277
493,493,-0.4542117156967145,-0.5,1,484.0,800.0,1.0,376.0,1,163.73648529098566
494,494,-0.031972690971676876,-0.0,1,377.0,934.0,1.0,1099.0,1,290.4081927084969
495,495,-0.0625455097162313,-0.1,1,320.0,972.0,1.0,678.0,1,281.2363470851306
496,496,0.4920206465834649,0.5,0,301.0,722.0,0.0,307.0,1,152.39380602496053
497,497,0.17627284235246576,0.2,0,407.0,782.0,0.0,691.0,1,247.11814729426027
498,498,-0.8055555850060097,-0.8,1,320.0,878.0,1.0,192.0,1,58.3333244981971
499,499,0.22862746049761684,0.2,0,423.0,938.0,0.0,769.0,1,231.41176185071495
500,500,0.9015408009381509,0.9,0,479.0,811.0,0.0,200.0,1,29.537759718554724
501,501,-0.9010395158520943,-0.9,1,289.0,511.0,1.0,220.0,1,29.68814524437171
502,502,-0.49276460644430653,-0.5,1,483.0,964.0,1.0,413.0,1,152.17061806670804
503,503,0.894829488532406,0.9,0,318.0,572.0,0.0,310.0,1,31.551153440278213
504,504,-0.6293853621214196,-0.6,1,334.0,772.0,1.0,334.0,1,111.18439136357412
505,505,0.4241450460856695,0.4,0,487.0,701.0,0.0,382.0,1,172.75648617429914
506,506,-0.4462156627474374,-0.4,1,405.0,709.0,1.0,396.0,1,166.13530117576877
507,507,-0.9600353904137426,-1.0,1,479.0,944.0,1.0,277.0,1,11.989382875877208
508,508,0.46237042158714003,0.5,0,455.0,643.0,0.0,472.0,1,161.288873523858
509,509,-0.673563632787626,-0.7,1,370.0,713.0,1.0,437.0,1,97.9309101637122
510,510,0.8352894298917581,0.8,0,311.0,581.0,0.0,238.0,1,49.41317103247256
511,511,-0.5142400394768427,-0.5,1,477.0,744.0,1.0,329.0,1,145.7279881569472
512,512,0.8746751402635067,0.9,0,476.0,572.0,0.0,142.0,1,37.597457920947996
513,513,0.44962749760866894,0.4,0,356.0,802.0,0.0,432.0,1,165.11175071739933
514,514,0.48341891613602583,0.5,0,478.0,849.0,0.0,803.0,1,154.97432515919226
515,515,0.8376800784262255,0.8,0,393.0,862.0,0.0,315.0,1,48.69597647213235
516,516,0.24238927645184405,0.2,0,310.0,587.0,0.0,893.0,1,227.28321706444677
517,517,0.4433479138552865,0.4,0,373.0,811.0,0.0,496.0,1,166.99562584341405
518,518,0.002599198807216707,0.0,0,442.0,897.0,0.0,801.0,1,299.220240357835
519,519,-0.838801797261794,-0.8,1,366.0,546.0,1.0,448.0,1,48.35946082146179
520,520,-0.8272498771137715,-0.8,1,454.0,917.0,1.0,319.0,1,51.82503686586855
521,521,-0.9700658525746666,-1.0,1,413.0,545.0,1.0,192.0,1,8.980244227600021
522,522,-0.3822309772595054,-0.4,1,467.0,924.0,1.0,319.0,1,185.3307068221484
523,523,0.47720978924887736,0.5,0,462.0,750.0,0.0,418.0,1,156.8370632253368
524,524,0.9605350543743221,1.0,0,363.0,542.0,0.0,165.0,1,11.839483687703378
525,525,-0.8154961998061747,-0.8,1,490.0,902.0,1.0,278.0,1,55.351140058147585
526,526,-0.47721373298843894,-0.5,1,301.0,837.0,1.0,412.0,1,156.83588010346833
527,527,0.18653492582928233,0.2,0,448.0,557.0,0.0,435.0,1,244.0395222512153
528,528,-0.8628324822907947,-0.9,1,315.0,756.0,1.0,779.0,1,41.150255312761594
529,529,-0.2049538806048572,-0.2,1,440.0,553.0,1.0,527.0,1,238.51383581854284
530,530,0.44025011432783745,0.4,0,347.0,982.0,0.0,391.0,1,167.92496570164877
531,531,0.2210018444664168,0.2,0,272.0,593.0,0.0,535.0,1,233.69944666007495
532,532,-0.05433176541007767,-0.1,1,258.0,608.0,0.0,664.0,0,283.7004703769767
533,533,-0.7104474307763378,-0.7,1,282.0,635.0,1.0,293.0,1,86.86577076709867
534,534,-0.7022050488277447,-0.7,1,446.0,659.0,1.0,445.0,1,89.33848535167658
535,535,-0.8515438158860955,-0.9,1,269.0,990.0,1.0,231.0,1,44.53685523417135
536,536,0.6203561456962681,0.6,0,357.0,869.0,0.0,254.0,1,113.89315629111958
537,537,-0.7627916443664522,-0.8,1,294.0,651.0,1.0,455.0,1,71.16250669006435
538,538,0.1586859635410125,0.2,0,314.0,825.0,0.0,841.0,1,252.39421093769624
539,539,-0.6636525252050098,-0.7,1,365.0,910.0,1.0,315.0,1,100.90424243849705
540,540,-0.7910066784105043,-0.8,1,358.0,814.0,1.0,308.0,1,62.69799647684871
541,541,-0.8307525273205614,-0.8,1,425.0,535.0,1.0,270.0,1,50.774241803831586
542,542,0.08953670488160448,0.1,0,255.0,951.0,0.0,1414.0,1,273.13898853551865
543,543,-0.6853364302664051,-0.7,1,269.0,959.0,1.0,262.0,1,94.39907092007846
544,544,-0.9943758727275593,-1.0,1,272.0,797.0,1.0,141.0,1,1.687238181732198
545,545,0.706791255076201,0.7,0,476.0,834.0,0.0,420.0,1,87.9626234771397
546,546,0.42088099356652076,0.4,0,409.0,617.0,0.0,884.0,1,173.73570193004377
547,547,0.45309400048106085,0.5,0,351.0,579.0,0.0,420.0,1,164.07179985568175
548,548,-0.6646969840583696,-0.7,1,269.0,734.0,1.0,557.0,1,100.5909047824891
549,549,0.15308097834349876,0.2,0,292.0,862.0,0.0,946.0,1,254.07570649695037
550,550,0.8403991840384872,0.8,0,338.0,543.0,0.0,349.0,1,47.88024478845383
551,551,-0.3294420764545587,-0.3,1,259.0,908.0,1.0,703.0,1,201.1673770636324
552,552,0.05604233004219905,0.1,0,405.0,962.0,0.0,703.0,1,283.1873009873403
553,553,-0.5028176327719387,-0.5,1,458.0,709.0,1.0,383.0,1,149.1547101684184
554,554,-0.07865489876279685,-0.1,1,281.0,984.0,1.0,745.0,1,276.40353037116097
555,555,-0.27361973107612725,-0.3,1,335.0,636.0,1.0,409.0,1,217.91408067716182
556,556,0.8341019702713615,0.8,0,401.0,885.0,0.0,234.0,1,49.769408918591566
557,557,0.016089391222763094,0.0,0,494.0,592.0,0.0,974.0,1,295.17318263317105
558,558,-0.9762453692043938,-1.0,1,340.0,957.0,1.0,273.0,1,7.126389238681874
559,559,0.9807993346527437,1.0,0,437.0,503.0,0.0,210.0,1,5.7601996041768855
560,560,-0.8277548201034852,-0.8,1,288.0,825.0,1.0,287.0,1,51.67355396895444
561,561,0.9972326786414079,1.0,0,252.0,908.0,0.0,180.0,1,0.8301964075776436
562,562,0.29772961618704796,0.3,0,355.0,818.0,0.0,547.0,1,210.68111514388562
563,563,-0.3707007947612555,-0.4,1,407.0,721.0,1.0,482.0,1,188.78976157162336
564,564,-0.8858194953909522,-0.9,1,339.0,672.0,1.0,169.0,1,34.25415138271435
565,565,-0.529511507776067,-0.5,1,452.0,893.0,1.0,485.0,1,141.1465476671799
566,566,0.7064743491251677,0.7,0,439.0,970.0,0.0,351.0,1,88.05769526244968
567,567,-0.2282188143233841,-0.2,1,375.0,574.0,1.0,471.0,1,231.53435570298478
568,568,0.6640647863316853,0.7,0,336.0,558.0,0.0,326.0,1,100.7805641004944
569,569,-0.99499394573211,-1.0,1,370.0,968.0,1.0,142.0,1,1.5018162803670076
570,570,-0.7555271290363659,-0.8,1,270.0,796.0,1.0,174.0,1,73.34186128909023
571,571,0.2083771864525521,0.2,0,314.0,644.0,0.0,452.0,1,237.48684406423436
572,572,0.8963471047170444,0.9,0,493.0,796.0,0.0,271.0,1,31.095868584886688
573,573,0.4091009926098259,0.4,0,366.0,581.0,0.0,773.0,1,177.2697022170522
574,574,0.5253488500165839,0.5,0,369.0,570.0,0.0,741.0,1,142.39534499502483
575,575,-0.872957269806534,-0.9,1,373.0,597.0,1.0,250.0,1,38.112819058039804
576,576,-0.9138807189546645,-0.9,1,310.0,762.0,1.0,158.0,1,25.83578431360065
577,577,-0.02962511157926695,-0.0,1,320.0,675.0,1.0,805.0,1,291.1124665262199
578,578,-0.32252626054647493,-0.3,1,260.0,574.0,1.0,526.0,1,203.24212183605752
579,579,-0.9564898468214089,-1.0,1,300.0,785.0,1.0,205.0,1,13.053045953577325
580,580,-0.17153581921827432,-0.2,1,334.0,862.0,1.0,694.0,1,248.5392542345177
581,581,-0.6595956784593979,-0.7,1,385.0,834.0,1.0,281.0,1,102.12129646218062
582,582,-0.3724526565441084,-0.4,1,411.0,874.0,1.0,665.0,1,188.26420303676747
583,583,-0.5153481441444494,-0.5,1,430.0,837.0,1.0,423.0,1,145.39555675666517
584,584,-0.5538566246022996,-0.6,1,350.0,674.0,1.0,316.0,1,133.84301261931014
585,585,-0.7699678359381776,-0.8,1,313.0,979.0,1.0,328.0,1,69.00964921854671
586,586,0.5316002969104401,0.5,0,483.0,651.0,0.0,626.0,1,140.51991092686796
587,587,-0.6916135403676997,-0.7,1,480.0,743.0,1.0,347.0,1,92.51593788969008
588,588,0.16473947890040197,0.2,0,310.0,534.0,0.0,1796.0,1,250.57815632987942
589,589,-0.6348166164168711,-0.6,1,271.0,665.0,1.0,274.0,1,109.55501507493865
590,590,-0.1894386435018367,-0.2,1,414.0,679.0,1.0,657.0,1,243.16840694944898
591,591,-0.8600819455793554,-0.9,1,375.0,639.0,1.0,316.0,1,41.9754163261934
592,592,-0.8706411189639349,-0.9,1,263.0,988.0,1.0,299.0,1,38.807664310819526
593,593,0.6781003551876272,0.7,0,489.0,601.0,0.0,340.0,1,96.56989344371183
594,594,0.5518587677771183,0.6,0,403.0,987.0,0.0,450.0,1,134.44236966686452
595,595,-0.8814887581557485,-0.9,1,307.0,520.0,1.0,193.0,1,35.553372553275466
596,596,0.18315847579221534,0.2,0,454.0,587.0,0.0,579.0,1,245.0524572623354
597,597,0.5077899027563739,0.5,0,293.0,800.0,0.0,587.0,1,147.66302917308784
598,598,-0.6676258723114017,-0.7,1,479.0,717.0,1.0,254.0,1,99.7122383065795
599,599,0.29337905935332254,0.3,0,431.0,611.0,0.0,888.0,1,211.98628219400325
600,600,0.41027585028118185,0.4,0,259.0,920.0,0.0,351.0,1,176.91724491564545
601,601,-0.8244011407188221,-0.8,1,321.0,661.0,1.0,318.0,1,52.679657784353374
602,602,-0.58918775282303,-0.6,1,481.0,896.0,1.0,363.0,1,123.24367415309099
603,603,-0.8256828526060795,-0.8,1,296.0,735.0,1.0,379.0,1,52.295144218176134
604,604,0.5888223098992678,0.6,0,483.0,999.0,0.0,378.0,1,123.35330703021967
605,605,0.013932714368523502,0.0,0,438.0,940.0,0.0,1192.0,1,295.82018568944295
606,606,-0.5988410709460499,-0.6,1,481.0,799.0,1.0,320.0,1,120.34767871618503
607,607,0.36317796200925767,0.4,0,490.0,598.0,0.0,482.0,1,191.0466113972227
608,608,-0.06453536481318811,-0.1,1,259.0,755.0,0.0,496.0,0,280.63939055604357
609,609,0.3049930663587106,0.3,0,383.0,978.0,0.0,419.0,1,208.50208009238682
610,610,0.7820140413584056,0.8,0,460.0,553.0,0.0,347.0,1,65.39578759247833
611,611,0.5223374482075749,0.5,0,468.0,531.0,0.0,781.0,1,143.29876553772755
612,612,-0.9326840638396003,-0.9,1,374.0,776.0,1.0,540.0,1,20.194780848119898
613,613,-0.06633095913434062,-0.1,1,375.0,666.0,1.0,1239.0,1,280.10071225969784
614,614,0.5700205644183907,0.6,0,281.0,639.0,0.0,730.0,1,128.9938306744828
615,615,0.2244482482592507,0.2,0,358.0,964.0,0.0,418.0,1,232.66552552222478
616,616,-0.4121877889127239,-0.4,1,426.0,694.0,1.0,420.0,1,176.34366332618282
617,617,0.4251418416125834,0.4,0,459.0,701.0,0.0,470.0,1,172.457447516225
618,618,-0.9482336457826097,-0.9,1,254.0,795.0,1.0,191.0,1,15.529906265217086
619,619,0.07285794622049968,0.1,0,297.0,542.0,0.0,691.0,1,278.1426161338501
620,620,-0.37928457603776433,-0.4,1,490.0,773.0,1.0,467.0,1,186.2146271886707
621,621,0.16462650731227324,0.2,0,443.0,689.0,0.0,798.0,1,250.61204780631803
622,622,0.9686992861421422,1.0,0,437.0,714.0,0.0,199.0,1,9.390214157357345
623,623,-0.9548510613318719,-1.0,1,302.0,715.0,1.0,203.0,1,13.544681600438423
624,624,-0.8372178026527413,-0.8,1,491.0,857.0,1.0,352.0,1,48.83465920417762
625,625,0.93862981502459,0.9,0,422.0,924.0,0.0,194.0,1,18.411055492623007
626,626,0.4534090132848778,0.5,0,378.0,744.0,0.0,518.0,1,163.97729601453665
627,627,0.9060700922196048,0.9,0,368.0,826.0,0.0,206.0,1,28.17897233411857
628,628,0.7289128566010317,0.7,0,356.0,946.0,0.0,328.0,1,81.3261430196905
629,629,0.6221294973262876,0.6,0,358.0,594.0,0.0,368.0,1,113.36115080211371
630,630,-0.03809116218158848,-0.0,1,302.0,626.0,1.0,772.0,1,288.57265134552347
631,631,-0.24432134550538698,-0.2,1,347.0,661.0,1.0,742.0,1,226.7035963483839
632,632,0.4776537224294495,0.5,0,311.0,681.0,0.0,618.0,1,156.70388327116515
633,633,-0.3599148106610137,-0.4,1,405.0,943.0,1.0,882.0,1,192.02555680169587
634,634,0.579924621670554,0.6,0,414.0,647.0,0.0,339.0,1,126.02261349883379
635,635,0.13745074525670775,0.1,0,326.0,967.0,0.0,987.0,1,258.76477642298767
636,636,-0.8835730592044677,-0.9,1,375.0,710.0,1.0,165.0,1,34.928082238659684
637,637,-0.18809475054191083,-0.2,1,428.0,760.0,1.0,792.0,1,243.57157483742674
638,638,0.4678974482260043,0.5,0,412.0,812.0,0.0,576.0,1,159.6307655321987
639,639,0.293155861460658,0.3,0,359.0,894.0,0.0,537.0,1,212.05324156180262
640,640,0.6452755993327628,0.6,0,472.0,681.0,0.0,267.0,1,106.41732020017116
641,641,-0.13418568324104396,-0.1,1,331.0,933.0,1.0,496.0,1,259.7442950276868
642,642,0.26605376042793183,0.3,0,478.0,813.0,0.0,559.0,1,220.18387187162045
643,643,-0.4292259223677264,-0.4,1,374.0,942.0,1.0,634.0,1,171.23222328968208
644,644,-0.5106580843969037,-0.5,1,403.0,709.0,1.0,408.0,1,146.80257468092887
645,645,0.27007062073046906,0.3,0,484.0,733.0,0.0,683.0,1,218.97881378085927
646,646,0.7376328764316784,0.7,0,338.0,980.0,0.0,292.0,1,78.71013707049647
647,647,0.7386122510103319,0.7,0,268.0,631.0,0.0,401.0,1,78.41632469690043
648,648,0.5237293417688569,0.5,0,277.0,852.0,0.0,381.0,1,142.88119746934294
649,649,0.5446665876530659,0.5,0,303.0,976.0,0.0,421.0,1,136.60002370408023
650,650,-0.9023550499579516,-0.9,1,337.0,737.0,1.0,176.0,1,29.29348501261453
651,651,0.33201959161200656,0.3,0,401.0,551.0,0.0,818.0,1,200.39412251639803
652,652,0.43628887257195426,0.4,0,278.0,877.0,0.0,395.0,1,169.1133382284137
653,653,-0.11775337996597912,-0.1,1,360.0,768.0,1.0,642.0,1,264.67398601020625
654,654,0.4663474517792936,0.5,0,261.0,950.0,0.0,339.0,1,160.09576446621193
655,655,-0.9806798606318503,-1.0,1,399.0,644.0,1.0,287.0,1,5.796041810444907
656,656,-0.67731950463062,-0.7,1,428.0,579.0,1.0,313.0,1,96.80414861081401
657,657,-0.9838032928386562,-1.0,1,443.0,965.0,1.0,252.0,1,4.859012148403141
658,658,-0.17917206824398502,-0.2,1,467.0,905.0,0.0,658.0,0,246.24837952680448
659,659,0.5454249354124197,0.5,0,404.0,876.0,0.0,230.0,1,136.3725193762741
660,660,-0.6471977553346908,-0.6,1,478.0,812.0,1.0,310.0,1,105.84067339959276
661,661,-0.17558860482448013,-0.2,1,469.0,756.0,1.0,605.0,1,247.32341855265597
662,662,-0.3371655123738413,-0.3,1,296.0,720.0,1.0,814.0,1,198.8503462878476
663,663,0.21677897640204957,0.2,0,281.0,752.0,0.0,527.0,1,234.96630707938513
664,664,0.7364553133791896,0.7,0,412.0,669.0,0.0,309.0,1,79.06340598624313
665,665,-0.7112800073414807,-0.7,1,323.0,654.0,1.0,433.0,1,86.61599779755579
666,666,0.20027142609786197,0.2,0,333.0,525.0,0.0,632.0,1,239.9185721706414
667,667,-0.07797992243556662,-0.1,1,401.0,713.0,1.0,946.0,1,276.60602326933
668,668,0.550030433998437,0.6,0,486.0,742.0,0.0,402.0,1,134.99086980046891
669,669,0.2994348566188936,0.3,0,386.0,702.0,0.0,752.0,1,210.16954301433194
670,670,0.213993668704207,0.2,0,269.0,769.0,0.0,552.0,1,235.8018993887379
671,671,0.9049083018351045,0.9,0,467.0,707.0,0.0,116.0,1,28.527509449468646
672,672,0.5659323467854256,0.6,0,401.0,946.0,0.0,363.0,1,130.22029596437233
673,673,-0.18821699191701513,-0.2,1,287.0,589.0,1.0,1084.0,1,243.53490242489545
674,674,-0.18680722671107697,-0.2,1,369.0,739.0,1.0,622.0,1,243.95783198667692
675,675,0.10591122895849892,0.1,0,499.0,838.0,0.0,923.0,1,268.2266313124503
676,676,0.4963349176134788,0.5,0,287.0,745.0,0.0,428.0,1,151.09952471595636
677,677,-0.22990840109130706,-0.2,1,499.0,647.0,0.0,914.0,0,231.02747967260788
678,678,-0.947827405642202,-0.9,1,466.0,863.0,1.0,261.0,1,15.651778307339391
679,679,0.3718779455811696,0.4,0,480.0,529.0,0.0,581.0,1,188.4366163256491
680,680,-0.3755336023816902,-0.4,1,270.0,946.0,1.0,434.0,1,187.33991928549295
681,681,-0.6517138367480526,-0.7,1,430.0,500.0,1.0,360.0,1,104.48584897558422
682,682,0.6728465700981716,0.7,0,420.0,870.0,0.0,420.0,1,98.14602897054851
683,683,0.5620706421127326,0.6,0,259.0,588.0,0.0,273.0,1,131.3788073661802
684,684,-0.9939693482494136,-1.0,1,262.0,525.0,1.0,193.0,1,1.8091955251759106
685,685,0.002142708407462557,0.0,0,418.0,520.0,0.0,962.0,1,299.3571874777612
686,686,-0.728392888091494,-0.7,1,456.0,840.0,1.0,264.0,1,81.48213357255179
687,687,0.4573597448017459,0.5,0,358.0,811.0,0.0,401.0,1,162.79207655947624
688,688,-0.8702081814902096,-0.9,1,497.0,796.0,1.0,267.0,1,38.93754555293712
689,689,0.3634597398390216,0.4,0,284.0,989.0,0.0,337.0,1,190.96207804829353
690,690,0.5037151150736954,0.5,0,417.0,606.0,0.0,367.0,1,148.8854654778914
691,691,0.36829177750102193,0.4,0,404.0,627.0,0.0,799.0,1,189.51246674969343
692,692,0.14215508607017036,0.1,0,417.0,654.0,0.0,1209.0,1,257.3534741789489
693,693,0.06578792818456214,0.1,0,346.0,768.0,0.0,1276.0,1,280.26362154463135
694,694,-0.8417733905280831,-0.8,1,462.0,680.0,1.0,528.0,1,47.46798284157507
695,695,-0.5112435591076745,-0.5,1,286.0,580.0,1.0,424.0,1,146.62693226769764
696,696,-0.16754151133598238,-0.2,1,409.0,994.0,1.0,417.0,1,249.73754659920527
697,697,-0.6706722149572739,-0.7,1,368.0,660.0,1.0,352.0,1,98.79833551281783
698,698,-0.5096796865589823,-0.5,1,327.0,937.0,1.0,526.0,1,147.0960940323053
699,699,-0.04610253180122448,-0.0,1,430.0,856.0,0.0,904.0,0,286.16924045963265
700,700,0.05144442400404459,0.1,0,373.0,658.0,0.0,1089.0,1,284.5666727987866
701,701,-0.8519262884061558,-0.9,1,399.0,621.0,1.0,230.0,1,44.42211347815326
702,702,0.17810218631480668,0.2,0,336.0,944.0,0.0,1400.0,1,246.569344105558
703,703,0.8686755541963509,0.9,0,250.0,726.0,0.0,224.0,1,39.397333741094734
704,704,-0.2232662345977594,-0.2,1,424.0,642.0,1.0,844.0,1,233.02012962067218
705,705,-0.9377164468031742,-0.9,1,364.0,753.0,1.0,173.0,1,18.68506595904773
706,706,-0.7981034749966258,-0.8,1,436.0,539.0,1.0,315.0,1,60.56895750101226
707,707,-0.6847433895490247,-0.7,1,333.0,882.0,1.0,245.0,1,94.5769831352926
708,708,-0.6154669606444931,-0.6,1,284.0,803.0,1.0,293.0,1,115.35991180665206
709,709,-0.8055977541935273,-0.8,1,409.0,781.0,1.0,220.0,1,58.32067374194181
710,710,0.05838734543774882,0.1,0,328.0,980.0,1.0,862.0,0,282.48379636867537
711,711,-0.839694260029817,-0.8,1,494.0,505.0,1.0,341.0,1,48.09172199105491
712,712,0.689521096593797,0.7,0,276.0,995.0,0.0,239.0,1,93.1436710218609
713,713,-0.5456712355723761,-0.5,1,253.0,706.0,1.0,391.0,1,136.29862932828718
714,714,-0.13645888875541945,-0.1,1,311.0,823.0,1.0,556.0,1,259.06233337337414
715,715,-0.46711562395317174,-0.5,1,306.0,763.0,1.0,551.0,1,159.86531281404848
716,716,-0.8492290060618599,-0.8,1,457.0,993.0,1.0,360.0,1,45.23129818144203
717,717,-0.7590071185745111,-0.8,1,475.0,729.0,1.0,376.0,1,72.29786442764667
718,718,-0.5181280181019894,-0.5,1,327.0,571.0,1.0,412.0,1,144.56159456940318
719,719,-0.06383812526521604,-0.1,1,387.0,748.0,1.0,1085.0,1,280.8485624204352
720,720,0.028326450048981044,0.0,0,261.0,937.0,0.0,722.0,1,291.5020649853057
721,721,-0.3088526640944471,-0.3,1,426.0,957.0,1.0,567.0,1,207.34420077166587
722,722,-0.7946118111645875,-0.8,1,443.0,522.0,1.0,345.0,1,61.61645665062376
723,723,0.6645867548708067,0.7,0,483.0,768.0,0.0,299.0,1,100.62397353875801
724,724,0.24457361388016063,0.2,0,345.0,653.0,0.0,582.0,1,226.6279158359518
725,725,-0.9287605823278924,-0.9,1,360.0,762.0,1.0,268.0,1,21.371825301632285
726,726,0.466712614484337,0.5,0,297.0,872.0,0.0,611.0,1,159.9862156546989
727,727,0.16183315821272992,0.2,0,482.0,757.0,0.0,1071.0,1,251.45005253618103
728,728,-0.6154123180123958,-0.6,1,275.0,872.0,1.0,393.0,1,115.37630459628126
729,729,0.40028367311182955,0.4,0,488.0,636.0,0.0,606.0,1,179.91489806645114
730,730,0.23656927371146041,0.2,0,343.0,863.0,0.0,704.0,1,229.02921788656187
731,731,0.7505777884015261,0.8,0,344.0,910.0,0.0,326.0,1,74.82666347954216
732,732,-0.9713322485693301,-1.0,1,320.0,684.0,1.0,186.0,1,8.600325429200971
733,733,0.17871588181202847,0.2,0,366.0,713.0,0.0,841.0,1,246.38523545639146
734,734,0.9661240890129899,1.0,0,493.0,800.0,0.0,167.0,1,10.162773296103044
735,735,-0.7333172802698702,-0.7,1,278.0,701.0,1.0,301.0,1,80.00481591903895
736,736,-0.4510729681882544,-0.5,1,496.0,764.0,1.0,500.0,1,164.67810954352368
737,737,0.7086641224962815,0.7,0,478.0,532.0,0.0,210.0,1,87.40076325111555
738,738,-0.48605820373869113,-0.5,1,284.0,510.0,1.0,446.0,1,154.18253887839265
739,739,-0.21557499622032616,-0.2,1,296.0,927.0,1.0,607.0,1,235.32750113390216
740,740,-0.7259173469338236,-0.7,1,365.0,990.0,1.0,285.0,1,82.22479591985292
741,741,0.26490266199891055,0.3,0,493.0,896.0,0.0,491.0,1,220.52920140032683
742,742,-0.5493410234260705,-0.5,1,468.0,531.0,1.0,601.0,1,135.19769297217886
743,743,0.7413676404194627,0.7,0,489.0,717.0,0.0,304.0,1,77.58970787416119
744,744,0.7035296000259803,0.7,0,439.0,744.0,0.0,277.0,1,88.94111999220591
745,745,-0.9780104968937653,-1.0,1,300.0,548.0,1.0,252.0,1,6.596850931870413
746,746,0.6321081699092743,0.6,0,454.0,651.0,0.0,365.0,1,110.3675490272177
747,747,-0.1395474590833543,-0.1,1,346.0,570.0,1.0,934.0,1,258.1357622749937
748,748,-0.48710398194644555,-0.5,1,438.0,962.0,1.0,390.0,1,153.86880541606632
749,749,-0.9902813506010528,-1.0,1,431.0,576.0,1.0,223.0,1,2.915594819684153
750,750,-0.11419915262828528,-0.1,1,375.0,791.0,1.0,544.0,1,265.7402542115144
751,751,-0.6799604526733709,-0.7,1,304.0,981.0,1.0,305.0,1,96.01186419798873
752,752,-0.7398930256239777,-0.7,1,429.0,941.0,1.0,310.0,1,78.03209231280668
753,753,0.029584935108996513,0.0,0,345.0,646.0,0.0,589.0,1,291.12451946730107
754,754,0.3567262412172878,0.4,0,432.0,708.0,0.0,740.0,1,192.98212763481365
755,755,-0.8511616189437476,-0.9,1,370.0,618.0,1.0,232.0,1,44.651514316875705
756,756,0.2477139082713269,0.2,0,439.0,515.0,0.0,506.0,1,225.68582751860194
757,757,-0.9984077101275282,-1.0,1,289.0,679.0,1.0,112.0,1,0.47768696174155245
758,758,-0.6483700971519626,-0.6,1,349.0,852.0,1.0,579.0,1,105.48897085441122
759,759,-0.3205778852009473,-0.3,1,304.0,764.0,1.0,422.0,1,203.8266344397158
760,760,0.5162673569335035,0.5,0,429.0,919.0,0.0,432.0,1,145.11979291994896
761,761,0.9467106927816833,0.9,0,476.0,838.0,0.0,206.0,1,15.986792165495011
762,762,0.8254108075937645,0.8,0,341.0,981.0,0.0,288.0,1,52.376757721870646
763,763,-0.5654149243549713,-0.6,1,400.0,803.0,1.0,387.0,1,130.3755226935086
764,764,0.2611557589006157,0.3,0,355.0,957.0,0.0,538.0,1,221.65327232981528
765,765,-0.4895541429576151,-0.5,1,273.0,948.0,1.0,399.0,1,153.13375711271547
766,766,0.5661370182165624,0.6,0,293.0,998.0,0.0,489.0,1,130.1588945350313
767,767,0.5388865574647863,0.5,0,422.0,877.0,0.0,411.0,1,138.3340327605641
768,768,-0.21813599233629866,-0.2,1,429.0,871.0,1.0,580.0,1,234.5592022991104
769,769,0.5321904979940482,0.5,0,367.0,657.0,0.0,476.0,1,140.34285060178556
770,770,-0.031175859136406636,-0.0,1,440.0,923.0,0.0,607.0,0,290.647242259078
771,771,-0.2816142709534548,-0.3,1,262.0,729.0,1.0,879.0,1,215.51571871396357
772,772,0.024127099346825,0.0,0,284.0,503.0,1.0,723.0,0,292.7618701959525
773,773,-0.7943910036885709,-0.8,1,499.0,748.0,1.0,243.0,1,61.68269889342874
774,774,0.17574121134573573,0.2,0,481.0,658.0,0.0,1271.0,1,247.27763659627928
775,775,0.7464965440773099,0.7,0,496.0,906.0,0.0,248.0,1,76.05103677680702
776,776,0.9291904147099146,0.9,0,312.0,782.0,0.0,176.0,1,21.242875587025623
777,777,0.1559280428969041,0.2,0,447.0,503.0,0.0,1570.0,1,253.22158713092878
778,778,0.2137799248454073,0.2,0,392.0,951.0,0.0,587.0,1,235.86602254637782
779,779,-0.3945752227080641,-0.4,1,481.0,959.0,1.0,510.0,1,181.62743318758078
780,780,0.4745385984577919,0.5,0,484.0,774.0,0.0,422.0,1,157.63842046266242
781,781,0.11185508921318377,0.1,0,257.0,858.0,0.0,605.0,1,266.4434732360449
782,782,-0.8983735438528977,-0.9,1,314.0,935.0,1.0,321.0,1,30.487936844130694
783,783,0.0935053215390429,0.1,0,345.0,897.0,0.0,1538.0,1,271.94840353828715
784,784,0.3586109292867399,0.4,0,401.0,721.0,0.0,318.0,1,192.41672121397804
785,785,0.6808952432970043,0.7,0,251.0,896.0,0.0,393.0,1,95.7314270108987
786,786,0.33915337149239577,0.3,0,337.0,757.0,0.0,576.0,1,198.25398855228127
787,787,0.7984684521605501,0.8,0,426.0,793.0,0.0,261.0,1,60.45946435183498
788,788,-0.945349469221443,-0.9,1,269.0,809.0,1.0,212.0,1,16.395159233567092
789,789,-0.6941515499958315,-0.7,1,497.0,975.0,1.0,348.0,1,91.75453500125055
790,790,-0.32483110797251635,-0.3,1,429.0,577.0,1.0,524.0,1,202.5506676082451
791,791,0.9553415038924198,1.0,0,492.0,747.0,0.0,181.0,1,13.397548832274065
792,792,-0.9345792816438938,-0.9,1,318.0,990.0,1.0,132.0,1,19.626215506831855
793,793,-0.6247414596168923,-0.6,1,319.0,658.0,1.0,323.0,1,112.5775621149323
794,794,-0.46516268053547116,-0.5,1,337.0,864.0,1.0,409.0,1,160.45119583935866
795,795,0.09471277148166446,0.1,0,448.0,636.0,0.0,706.0,1,271.58616855550065
796,796,-0.15536747669412243,-0.2,1,447.0,628.0,0.0,465.0,0,253.38975699176328
797,797,0.48296268541059795,0.5,0,271.0,732.0,0.0,527.0,1,155.1111943768206
798,798,-0.6572998640270957,-0.7,1,318.0,516.0,1.0,246.0,1,102.81004079187129
799,799,-0.2649380268002426,-0.3,1,395.0,727.0,1.0,538.0,1,220.51859195992722
800,800,-0.7634696394380216,-0.8,1,331.0,879.0,1.0,800.0,1,70.95910816859352
801,801,-0.25218455711386123,-0.3,1,385.0,659.0,1.0,916.0,1,224.34463286584162
802,802,0.9940044135136124,1.0,0,337.0,816.0,0.0,267.0,1,1.7986759459162949
803,803,0.802160781244105,0.8,0,376.0,803.0,0.0,281.0,1,59.35176562676852
804,804,0.35648581263332435,0.4,0,351.0,937.0,0.0,642.0,1,193.0542562100027
805,805,-0.3225274414518071,-0.3,1,358.0,661.0,1.0,731.0,1,203.24176756445786
806,806,-0.6886747395630868,-0.7,1,450.0,653.0,1.0,307.0,1,93.39757813107397
807,807,-0.11226009948001225,-0.1,1,265.0,693.0,0.0,1772.0,0,266.3219701559963
808,808,0.48712350503879165,0.5,0,356.0,826.0,0.0,388.0,1,153.86294848836252
809,809,0.003556734106875181,0.0,0,377.0,681.0,1.0,1892.0,0,298.93297976793747
810,810,0.24908072786725866,0.2,0,274.0,580.0,0.0,696.0,1,225.2757816398224
811,811,0.6765517819426154,0.7,0,323.0,808.0,0.0,259.0,1,97.03446541721536
812,812,-0.13807902426742058,-0.1,1,259.0,815.0,1.0,946.0,1,258.57629271977385
813,813,0.09694619451204733,0.1,0,428.0,581.0,0.0,531.0,1,270.9161416463858
814,814,0.9176988993078579,0.9,0,389.0,536.0,0.0,185.0,1,24.690330207642642
815,815,-0.08997068833384936,-0.1,1,270.0,549.0,1.0,591.0,1,273.0087934998452
816,816,0.5904209987207825,0.6,0,286.0,522.0,0.0,412.0,1,122.87370038376525
817,817,-0.590012662123939,-0.6,1,450.0,897.0,1.0,433.0,1,122.9962013628183
818,818,0.39819179855883147,0.4,0,478.0,729.0,0.0,483.0,1,180.54246043235057
819,819,0.4062953659818389,0.4,0,392.0,581.0,0.0,587.0,1,178.11139020544832
820,820,-0.5175364385075829,-0.5,1,280.0,888.0,1.0,442.0,1,144.73906844772512
821,821,-0.43079177059847296,-0.4,1,321.0,958.0,1.0,361.0,1,170.7624688204581
822,822,-0.49008234388113814,-0.5,1,366.0,973.0,1.0,451.0,1,152.97529683565855
823,823,0.44336926923113795,0.4,0,357.0,667.0,0.0,476.0,1,166.98921923065862
824,824,0.8928510687395117,0.9,0,385.0,548.0,0.0,247.0,1,32.14467937814649
825,825,0.22242498252447995,0.2,0,309.0,843.0,0.0,678.0,1,233.27250524265602
826,826,-0.7393948342534757,-0.7,1,378.0,610.0,1.0,312.0,1,78.18154972395727
827,827,0.8837575546209055,0.9,0,432.0,513.0,0.0,175.0,1,34.872733613728336
828,828,-0.15419124613685087,-0.2,1,258.0,878.0,0.0,444.0,0,253.74262615894474
829,829,0.8955838058703463,0.9,0,481.0,756.0,0.0,173.0,1,31.324858238896127
830,830,-0.9509986985994072,-1.0,1,251.0,696.0,1.0,263.0,1,14.700390420177833
831,831,-0.9949120804155318,-1.0,1,359.0,914.0,1.0,127.0,1,1.5263758753404577
832,832,-0.6981613760776042,-0.7,1,364.0,912.0,1.0,254.0,1,90.55158717671874
833,833,-0.377598003492821,-0.4,1,423.0,512.0,1.0,435.0,1,186.7205989521537
834,834,0.23465354241516634,0.2,0,317.0,793.0,0.0,910.0,1,229.6039372754501
835,835,0.9925463226951521,1.0,0,472.0,613.0,0.0,195.0,1,2.236103191454375
836,836,-0.4503517404388222,-0.5,1,253.0,784.0,1.0,343.0,1,164.89447786835333
837,837,-0.5707231613835364,-0.6,1,411.0,956.0,1.0,353.0,1,128.78305158493907
838,838,0.8162373873516071,0.8,0,275.0,536.0,0.0,229.0,1,55.128783794517865
839,839,0.16998797587785885,0.2,0,410.0,688.0,0.0,712.0,1,249.00360723664235
840,840,-0.45679515525480796,-0.5,1,390.0,983.0,1.0,347.0,1,162.9614534235576
841,841,-0.019662988219542044,-0.0,1,469.0,578.0,1.0,1013.0,1,294.1011035341374
842,842,-0.7936002733856176,-0.8,1,286.0,893.0,1.0,381.0,1,61.91991798431473
843,843,0.9231750759782202,0.9,0,364.0,828.0,0.0,208.0,1,23.047477206533927
844,844,0.9717852583071627,1.0,0,274.0,640.0,0.0,206.0,1,8.4644225078512
845,845,-0.7547731028865976,-0.8,1,427.0,686.0,1.0,217.0,1,73.56806913402072
846,846,0.5565951384078336,0.6,0,357.0,524.0,0.0,359.0,1,133.02145847764993
847,847,0.5961283500914636,0.6,0,376.0,778.0,0.0,256.0,1,121.16149497256092
848,848,0.6027017889412292,0.6,0,338.0,808.0,0.0,744.0,1,119.18946331763125
849,849,0.45154204081468974,0.5,0,364.0,588.0,0.0,338.0,1,164.53738775559307
850,850,0.1976507899851001,0.2,0,381.0,829.0,0.0,530.0,1,240.70476300446998
851,851,-0.7064725330842585,-0.7,1,300.0,731.0,1.0,319.0,1,88.05824007472245
852,852,-0.8880372339734275,-0.9,1,330.0,727.0,1.0,333.0,1,33.588829807971756
853,853,0.007243247597770619,0.0,0,433.0,986.0,1.0,771.0,0,297.8270257206688
854,854,-0.13615362239576378,-0.1,1,395.0,836.0,1.0,1439.0,1,259.1539132812709
855,855,-0.5780325400039859,-0.6,1,492.0,556.0,1.0,332.0,1,126.59023799880424
856,856,-0.9246341578905253,-0.9,1,258.0,678.0,1.0,174.0,1,22.609752632842415
857,857,-0.7161783911635378,-0.7,1,326.0,962.0,1.0,322.0,1,85.14648265093867
858,858,-0.7475437462300385,-0.7,1,295.0,673.0,1.0,212.0,1,75.73687613098845
859,859,-0.6975170049535753,-0.7,1,365.0,834.0,1.0,441.0,1,90.74489851392742
860,860,-0.7571446729755384,-0.8,1,301.0,853.0,1.0,286.0,1,72.85659810733847
861,861,-0.7554253758324945,-0.8,1,255.0,928.0,1.0,287.0,1,73.37238725025166
862,862,0.03370703076728532,0.0,0,377.0,847.0,1.0,1336.0,0,289.8878907698144
863,863,-0.41855264655816393,-0.4,1,470.0,831.0,1.0,779.0,1,174.43420603255083
864,864,-0.08616996687784972,-0.1,1,313.0,951.0,1.0,2126.0,1,274.1490099366451
865,865,-0.4925383173257252,-0.5,1,319.0,844.0,1.0,427.0,1,152.23850480228245
866,866,0.5849589216966464,0.6,0,258.0,877.0,0.0,395.0,1,124.51232349100607
867,867,-0.6609437291090154,-0.7,1,479.0,955.0,1.0,696.0,1,101.71688126729536
868,868,-0.615186088482073,-0.6,1,423.0,535.0,1.0,462.0,1,115.44417345537809
869,869,-0.8501153313344629,-0.9,1,397.0,904.0,1.0,209.0,1,44.96540059966112
870,870,-0.5723860242089305,-0.6,1,435.0,796.0,1.0,389.0,1,128.28419273732086
871,871,0.014904428060197539,0.0,0,415.0,924.0,0.0,821.0,1,295.5286715819407
872,872,-0.011972621923159066,-0.0,1,452.0,982.0,1.0,846.0,1,296.4082134230523
873,873,-0.28482912786537695,-0.3,1,312.0,593.0,1.0,935.0,1,214.5512616403869
874,874,-0.8499851015033848,-0.8,1,454.0,717.0,1.0,199.0,1,45.00446954898456
875,875,-0.6452448863908278,-0.6,1,444.0,943.0,1.0,413.0,1,106.42653408275167
876,876,-0.8741764694536767,-0.9,1,479.0,665.0,1.0,186.0,1,37.747059163897
877,877,0.19681578865575333,0.2,0,374.0,599.0,0.0,607.0,1,240.955263403274
878,878,0.5391111780291435,0.5,0,414.0,781.0,0.0,345.0,1,138.26664659125694
879,879,0.9709573552298156,1.0,0,365.0,889.0,0.0,176.0,1,8.71279343105531
880,880,0.5835638210515937,0.6,0,313.0,789.0,0.0,298.0,1,124.9308536845219
881,881,0.8195653526863078,0.8,0,405.0,553.0,0.0,302.0,1,54.13039419410766
882,882,0.143817828818388,0.1,0,299.0,854.0,0.0,917.0,1,256.8546513544836
883,883,-0.8648617604906819,-0.9,1,335.0,545.0,1.0,180.0,1,40.54147185279544
884,884,0.9497353115617047,0.9,0,260.0,575.0,0.0,225.0,1,15.079406531488605
885,885,-0.8357143854303692,-0.8,1,365.0,685.0,1.0,200.0,1,49.28568437088923
886,886,0.09069760175934638,0.1,0,308.0,858.0,0.0,574.0,1,272.7907194721961
887,887,-0.7335848771503535,-0.7,1,423.0,543.0,1.0,394.0,1,79.92453685489396
888,888,-0.03385149089126682,-0.0,1,299.0,864.0,1.0,537.0,1,289.84455273261995
889,889,-0.9240740020512965,-0.9,1,343.0,554.0,1.0,163.0,1,22.777799384611043
890,890,0.394452120938092,0.4,0,396.0,730.0,0.0,364.0,1,181.6643637185724
891,891,0.5910902047255526,0.6,0,348.0,708.0,0.0,304.0,1,122.67293858233421
892,892,0.12729672464180486,0.1,0,394.0,886.0,1.0,1400.0,0,261.8109826074585
893,893,-0.6443153212314587,-0.6,1,472.0,684.0,1.0,404.0,1,106.70540363056237
894,894,-0.6056790332525268,-0.6,1,370.0,755.0,1.0,455.0,1,118.29629002424196
895,895,-0.6854677083787168,-0.7,1,316.0,517.0,1.0,287.0,1,94.35968748638494
896,896,0.6129136228766168,0.6,0,267.0,807.0,0.0,336.0,1,116.12591313701498
897,897,-0.5682003685486754,-0.6,1,465.0,818.0,1.0,367.0,1,129.53988943539738
898,898,-0.1514709369685452,-0.2,1,440.0,860.0,1.0,680.0,1,254.55871890943644
899,899,-0.7249860178891159,-0.7,1,423.0,726.0,1.0,441.0,1,82.50419463326524
900,900,-0.912104045655864,-0.9,1,406.0,686.0,1.0,288.0,1,26.3687863032408
901,901,0.7242594843756796,0.7,0,467.0,785.0,0.0,408.0,1,82.72215468729614
902,902,0.06494294587073024,0.1,0,332.0,806.0,1.0,872.0,0,280.51711623878094
903,903,-0.07748594835950162,-0.1,1,323.0,662.0,1.0,735.0,1,276.7542154921495
904,904,0.11143131898551384,0.1,0,362.0,940.0,0.0,1158.0,1,266.57060430434586
905,905,0.7887744183164886,0.8,0,458.0,787.0,0.0,245.0,1,63.36767450505341
906,906,0.08953862568435822,0.1,0,411.0,561.0,1.0,798.0,0,273.13841229469256
907,907,0.008936781376909453,0.0,0,465.0,949.0,1.0,656.0,0,297.31896558692716
908,908,0.468238980164849,0.5,0,493.0,584.0,0.0,333.0,1,159.5283059505453
909,909,0.15703896448316046,0.2,0,322.0,660.0,0.0,548.0,1,252.88831065505187
910,910,0.4919740591126829,0.5,0,467.0,665.0,0.0,378.0,1,152.40778226619514
911,911,0.38909503647350263,0.4,0,264.0,880.0,0.0,486.0,1,183.27148905794922
912,912,-0.6891563760870709,-0.7,1,342.0,921.0,1.0,327.0,1,93.25308717387873
913,913,-0.4492171693523559,-0.4,1,273.0,843.0,1.0,474.0,1,165.23484919429322
914,914,-0.6392177303368383,-0.6,1,441.0,649.0,1.0,390.0,1,108.23468089894853
915,915,-0.500184859938436,-0.5,1,423.0,778.0,1.0,419.0,1,149.9445420184692
916,916,0.7014968513300803,0.7,0,338.0,520.0,0.0,332.0,1,89.5509446009759
917,917,0.4253286368469815,0.4,0,415.0,565.0,0.0,370.0,1,172.40140894590553
918,918,0.2692475463289703,0.3,0,390.0,840.0,0.0,460.0,1,219.2257361013089
919,919,0.9881618790292508,1.0,0,295.0,695.0,0.0,160.0,1,3.5514362912247632
920,920,-0.3560405332882357,-0.4,1,282.0,623.0,1.0,525.0,1,193.1878400135293
921,921,0.9821140299969817,1.0,0,496.0,784.0,0.0,220.0,1,5.365791000905484
922,922,-0.5781386822699255,-0.6,1,321.0,821.0,1.0,288.0,1,126.55839531902235
923,923,0.051526336206699996,0.1,0,358.0,623.0,0.0,1209.0,1,284.54209913799
924,924,0.9445378567763663,0.9,0,278.0,885.0,0.0,267.0,1,16.63864296709012
925,925,-0.3923882104519816,-0.4,1,410.0,612.0,1.0,628.0,1,182.28353686440553
926,926,0.4901436421779377,0.5,0,357.0,636.0,0.0,547.0,1,152.9569073466187
927,927,0.7055909662651583,0.7,0,482.0,899.0,0.0,349.0,1,88.32271012045251
928,928,-0.9439277907358028,-0.9,1,457.0,502.0,1.0,331.0,1,16.82166277925916
929,929,0.283703667339801,0.3,0,437.0,660.0,0.0,673.0,1,214.8888997980597
930,930,0.14910651185081614,0.1,0,313.0,817.0,0.0,620.0,1,255.26804644475516
931,931,0.09764282759750431,0.1,0,387.0,598.0,1.0,555.0,0,270.7071517207487
932,932,-0.6088274787914245,-0.6,1,415.0,922.0,1.0,483.0,1,117.35175636257264
933,933,-0.664263362478853,-0.7,1,359.0,960.0,1.0,301.0,1,100.7209912563441
934,934,0.8013755373407088,0.8,0,341.0,545.0,0.0,274.0,1,59.58733879778737
935,935,-0.7447886148562572,-0.7,1,471.0,854.0,1.0,215.0,1,76.56341554312283
936,936,0.19075980458758135,0.2,0,495.0,990.0,0.0,885.0,1,242.7720586237256
937,937,-0.25047335293901596,-0.3,1,299.0,878.0,1.0,683.0,1,224.8579941182952
938,938,0.290458625673075,0.3,0,261.0,650.0,0.0,469.0,1,212.8624122980775
939,939,0.27541827748954417,0.3,0,392.0,741.0,0.0,567.0,1,217.37451675313676
940,940,0.7406192697122449,0.7,0,323.0,806.0,0.0,251.0,1,77.81421908632653
941,941,0.12208388960415939,0.1,0,380.0,534.0,0.0,646.0,1,263.3748331187522
942,942,0.3333179667241619,0.3,0,285.0,510.0,0.0,1105.0,1,200.00460998275142
943,943,0.16227986565880936,0.2,0,473.0,572.0,0.0,815.0,1,251.31604030235718
944,944,-0.07156477361630609,-0.1,1,440.0,832.0,1.0,578.0,1,278.5305679151082
945,945,-0.6975137226663455,-0.7,1,323.0,760.0,1.0,317.0,1,90.74588320009636
946,946,0.2177621895366606,0.2,0,442.0,587.0,0.0,781.0,1,234.6713431390018
947,947,-0.09469581803195082,-0.1,1,416.0,820.0,1.0,2104.0,1,271.59125459041474
948,948,-0.8735069952321453,-0.9,1,491.0,580.0,1.0,219.0,1,37.947901430356424
949,949,0.35388744919904,0.4,0,408.0,895.0,0.0,837.0,1,193.833765240288
950,950,0.6059964414009216,0.6,0,273.0,583.0,0.0,374.0,1,118.20106757972353
951,951,-0.5863781845358862,-0.6,1,452.0,731.0,1.0,337.0,1,124.08654463923415
952,952,-0.4343553181063715,-0.4,1,299.0,917.0,1.0,694.0,1,169.69340456808854
953,953,0.44032763316578616,0.4,0,311.0,680.0,0.0,359.0,1,167.90171005026414
954,954,0.308036298051535,0.3,0,362.0,734.0,0.0,674.0,1,207.5891105845395
955,955,-0.183117637386071,-0.2,1,411.0,519.0,1.0,740.0,1,245.0647087841787
956,956,0.42338827390487843,0.4,0,464.0,963.0,0.0,353.0,1,172.98351782853646
957,957,-0.5418340177102512,-0.5,1,393.0,660.0,1.0,437.0,1,137.44979468692463
958,958,-0.8225606608207894,-0.8,1,451.0,967.0,1.0,162.0,1,53.231801753763186
959,959,-0.20483617433537815,-0.2,1,331.0,978.0,1.0,731.0,1,238.54914769938657
960,960,-0.5564692928475621,-0.6,1,473.0,531.0,1.0,266.0,1,133.05921214573138
961,961,0.9500153754370724,1.0,0,346.0,656.0,0.0,118.0,1,14.995387368878287
962,962,-0.6693552500865099,-0.7,1,439.0,998.0,1.0,293.0,1,99.19342497404703
963,963,-0.36846117914406307,-0.4,1,340.0,966.0,1.0,414.0,1,189.46164625678108
964,964,-0.4249234151021559,-0.4,1,410.0,822.0,1.0,328.0,1,172.5229754693532
965,965,0.16922010013896394,0.2,0,463.0,682.0,0.0,645.0,1,249.2339699583108
966,966,-0.910201268275983,-0.9,1,426.0,796.0,1.0,218.0,1,26.939619517205095
967,967,0.15601790078685185,0.2,0,441.0,818.0,0.0,701.0,1,253.19462976394445
968,968,0.13277975970753197,0.1,0,280.0,918.0,0.0,572.0,1,260.1660720877404
969,969,-0.44462305829028814,-0.4,1,405.0,840.0,1.0,465.0,1,166.61308251291356
970,970,-0.4542642625652873,-0.5,1,460.0,742.0,1.0,678.0,1,163.7207212304138
971,971,-0.31743149965504047,-0.3,1,390.0,929.0,1.0,1011.0,1,204.77055010348786
972,972,0.9445605849994332,0.9,0,450.0,709.0,0.0,281.0,1,16.631824500170044
973,973,0.5413183916374482,0.5,0,355.0,523.0,0.0,372.0,1,137.60448250876553
974,974,0.24999385811417674,0.2,0,299.0,723.0,0.0,478.0,1,225.00184256574698
975,975,-0.08612532000720452,-0.1,1,495.0,974.0,1.0,881.0,1,274.1624039978386
976,976,-0.6655029465129818,-0.7,1,499.0,583.0,1.0,328.0,1,100.34911604610545
977,977,-0.14759828580907475,-0.1,1,314.0,565.0,1.0,791.0,1,255.72051425727759
978,978,0.21365206934283143,0.2,0,284.0,783.0,0.0,923.0,1,235.90437919715058
979,979,0.29675799431002203,0.3,0,292.0,830.0,0.0,468.0,1,210.9726017069934
980,980,-0.8248891810095818,-0.8,1,442.0,983.0,1.0,235.0,1,52.53324569712547
981,981,0.758206126699132,0.8,0,353.0,730.0,0.0,247.0,1,72.53816199026039
982,982,-0.12438750000796772,-0.1,1,497.0,914.0,1.0,709.0,1,262.6837499976097
983,983,0.3643611469421515,0.4,0,478.0,846.0,0.0,856.0,1,190.69165591735455
984,984,-0.22906877048368424,-0.2,1,399.0,513.0,0.0,1168.0,0,231.27936885489473
985,985,0.4617905189626583,0.5,0,359.0,845.0,0.0,526.0,1,161.4628443112025
986,986,-0.8771757681399093,-0.9,1,476.0,540.0,1.0,204.0,1,36.84726955802722
987,987,-0.6926261063058206,-0.7,1,370.0,722.0,1.0,348.0,1,92.21216810825383
988,988,0.27966599870971764,0.3,0,417.0,719.0,0.0,624.0,1,216.1002003870847
989,989,-0.5288745532999768,-0.5,1,476.0,984.0,1.0,380.0,1,141.33763401000695
990,990,-0.26873728713756107,-0.3,1,438.0,726.0,1.0,856.0,1,219.3788138587317
991,991,-0.010975240663454011,-0.0,1,331.0,687.0,0.0,1062.0,0,296.7074278009638
992,992,0.9634304604703803,1.0,0,294.0,616.0,0.0,260.0,1,10.970861858885916
993,993,-0.76849003776649,-0.8,1,336.0,654.0,1.0,250.0,1,69.45298867005299
994,994,-0.6000147444847879,-0.6,1,454.0,784.0,1.0,482.0,1,119.99557665456364
995,995,-0.9445875445331202,-0.9,1,292.0,595.0,1.0,223.0,1,16.623736640063935
996,996,-0.2285879478570787,-0.2,1,340.0,566.0,1.0,834.0,1,231.4236156428764
997,997,0.09103375197190355,0.1,0,300.0,996.0,0.0,484.0,1,272.6898744084289
998,998,-0.09611504511739999,-0.1,1,393.0,933.0,1.0,854.0,1,271.16548646478003
999,999,0.36760940468331893,0.4,0,437.0,863.0,0.0,350.0,1,189.71717859500433
1000,1000,0.9049420768593106,0.9,0,352.0,548.0,0.0,170.0,1,28.517376942206816
1001,1001,0.6149845500105242,0.6,0,277.0,675.0,0.0,628.0,1,115.50463499684274
1002,1002,0.9403252395337562,0.9,0,425.0,804.0,0.0,221.0,1,17.902428139873127
1003,1003,-0.9813283207304699,-1.0,1,482.0,842.0,1.0,276.0,1,5.6015037808590185
1004,1004,0.05102221968655174,0.1,0,378.0,678.0,0.0,1364.0,1,284.69333409403447
1005,1005,0.4463795388077878,0.4,0,432.0,716.0,0.0,592.0,1,166.08613835766366
1006,1006,-0.004587741831181047,-0.0,1,272.0,631.0,0.0,1397.0,0,298.6236774506457
1007,1007,0.8141795007007657,0.8,0,254.0,617.0,0.0,379.0,1,55.746149789770286
1008,1008,0.7003747231291484,0.7,0,393.0,735.0,0.0,442.0,1,89.88758306125548
1009,1009,-0.842773854882491,-0.8,1,349.0,580.0,1.0,161.0,1,47.16784353525269
1010,1010,-0.7700199800132459,-0.8,1,477.0,643.0,1.0,250.0,1,68.99400599602623
1011,1011,-0.06934164805307219,-0.1,1,356.0,697.0,1.0,667.0,1,279.1975055840783
1012,1012,-0.40951357634501995,-0.4,1,398.0,928.0,1.0,524.0,1,177.145927096494
1013,1013,-0.5764750443152038,-0.6,1,469.0,771.0,1.0,490.0,1,127.05748670543886
1014,1014,0.43531974627857495,0.4,0,289.0,897.0,0.0,344.0,1,169.40407611642752
1015,1015,-0.5305941789307467,-0.5,1,483.0,546.0,1.0,331.0,1,140.821746320776
1016,1016,0.6328093329142799,0.6,0,456.0,852.0,0.0,322.0,1,110.15720012571603
1017,1017,-0.5682409438781777,-0.6,1,442.0,740.0,1.0,508.0,1,129.5277168365467
1018,1018,-0.7312030303885138,-0.7,1,499.0,564.0,1.0,247.0,1,80.63909088344587
1019,1019,0.8475200234274449,0.8,0,364.0,723.0,0.0,193.0,1,45.743992971766524
1020,1020,-0.7034937236284606,-0.7,1,364.0,639.0,1.0,227.0,1,88.95188291146181
1021,1021,0.16949943634708697,0.2,0,479.0,534.0,0.0,517.0,1,249.1501690958739
1022,1022,0.71444147128532,0.7,0,356.0,835.0,0.0,249.0,1,85.667558614404
1023,1023,0.9768492902369061,1.0,0,437.0,871.0,0.0,262.0,1,6.945212928928157
1024,1024,-0.2863553286677343,-0.3,1,379.0,836.0,1.0,535.0,1,214.09340139967972
1025,1025,-0.4159154543335717,-0.4,1,466.0,944.0,1.0,410.0,1,175.2253636999285
1026,1026,0.5145194458059521,0.5,0,263.0,850.0,0.0,387.0,1,145.64416625821437
1027,1027,0.8303228145764259,0.8,0,265.0,741.0,0.0,214.0,1,50.90315562707224
1028,1028,0.4600516286115124,0.5,0,290.0,647.0,0.0,433.0,1,161.9845114165463
1029,1029,-0.666434205122066,-0.7,1,360.0,645.0,1.0,255.0,1,100.0697384633802
1030,1030,0.788003481575213,0.8,0,426.0,618.0,0.0,296.0,1,63.59895552743608
1031,1031,0.8614156103445516,0.9,0,422.0,807.0,0.0,311.0,1,41.57531689663452
1032,1032,-0.7885746174025712,-0.8,1,415.0,744.0,1.0,291.0,1,63.42761477922865
1033,1033,-0.6336699599253781,-0.6,1,482.0,624.0,1.0,314.0,1,109.89901202238657
1034,1034,-0.44552804637314036,-0.4,1,467.0,844.0,1.0,469.0,1,166.34158608805788
1035,1035,0.7032509060201066,0.7,0,285.0,874.0,0.0,411.0,1,89.024728193968
1036,1036,0.11949210187718906,0.1,0,469.0,660.0,0.0,2041.0,1,264.1523694368433
1037,1037,-0.67633851222894,-0.7,1,385.0,669.0,1.0,256.0,1,97.09844633131799
1038,1038,-0.3858099882834287,-0.4,1,438.0,796.0,1.0,446.0,1,184.2570035149714
1039,1039,0.030691050779154017,0.0,0,398.0,854.0,0.0,1068.0,1,290.7926847662538
1040,1040,0.19574100653670068,0.2,0,324.0,706.0,0.0,500.0,1,241.2776980389898
1041,1041,0.7795874482739755,0.8,0,464.0,795.0,0.0,301.0,1,66.12376551780734
1042,1042,0.005800420517767524,0.0,0,275.0,898.0,1.0,1737.0,0,298.25987384466976
1043,1043,0.9764800739567732,1.0,0,380.0,739.0,0.0,181.0,1,7.055977812968051
1044,1044,0.6310429604097829,0.6,0,338.0,918.0,0.0,494.0,1,110.68711187706512
1045,1045,0.8498301579669911,0.8,0,320.0,960.0,0.0,460.0,1,45.05095260990266
1046,1046,-0.9650550027738221,-1.0,1,464.0,555.0,1.0,111.0,1,10.483499167853383
1047,1047,0.22686640901260757,0.2,0,479.0,571.0,0.0,400.0,1,231.94007729621774
1048,1048,0.4732572863349782,0.5,0,419.0,997.0,0.0,424.0,1,158.02281409950655
1049,1049,0.6523255856180978,0.7,0,269.0,551.0,0.0,470.0,1,104.30232431457065
1050,1050,-0.7750140549725135,-0.8,1,337.0,893.0,1.0,220.0,1,67.49578350824595
1051,1051,-0.4291457459226389,-0.4,1,354.0,664.0,1.0,392.0,1,171.25627622320835
1052,1052,-0.9558371813051965,-1.0,1,368.0,579.0,1.0,623.0,1,13.248845608441062
1053,1053,0.6163802935809652,0.6,0,266.0,886.0,0.0,348.0,1,115.08591192571043
1054,1054,0.5364033063006366,0.5,0,473.0,916.0,0.0,301.0,1,139.07900810980902
1055,1055,-0.5492124068076252,-0.5,1,343.0,591.0,1.0,726.0,1,135.23627795771245
1056,1056,-0.21598132700755035,-0.2,1,324.0,885.0,1.0,1241.0,1,235.2056018977349
1057,1057,-0.19845331301640767,-0.2,1,392.0,875.0,1.0,563.0,1,240.4640060950777
1058,1058,0.3604890162281591,0.4,0,415.0,851.0,0.0,1484.0,1,191.85329513155227
1059,1059,0.700751357879954,0.7,0,432.0,718.0,0.0,260.0,1,89.7745926360138
1060,1060,-0.6928080773595859,-0.7,1,386.0,710.0,1.0,234.0,1,92.15757679212422
1061,1061,0.4976892961273176,0.5,0,258.0,887.0,0.0,495.0,1,150.69321116180473
1062,1062,0.7705365811400633,0.8,0,289.0,500.0,0.0,301.0,1,68.83902565798101
1063,1063,0.8080737903095099,0.8,0,469.0,639.0,0.0,292.0,1,57.577862907147036
1064,1064,-0.47041863587042476,-0.5,1,353.0,988.0,1.0,409.0,1,158.87440923887257
1065,1065,0.4641649743925642,0.5,0,258.0,920.0,0.0,612.0,1,160.75050768223073
1066,1066,-0.05790971251764554,-0.1,1,286.0,780.0,0.0,874.0,0,282.62708624470633
1067,1067,-0.9079597937787838,-0.9,1,262.0,865.0,1.0,203.0,1,27.61206186636487
1068,1068,0.5531208321261498,0.6,0,277.0,621.0,0.0,362.0,1,134.06375036215505
1069,1069,-0.8514689252550454,-0.9,1,291.0,633.0,1.0,306.0,1,44.55932242348639
1070,1070,-0.649814044028203,-0.6,1,499.0,840.0,1.0,291.0,1,105.0557867915391
1071,1071,-0.7839913091573647,-0.8,1,472.0,622.0,1.0,236.0,1,64.8026072527906
1072,1072,0.0944152738785291,0.1,0,326.0,955.0,0.0,1809.0,1,271.6754178364413
1073,1073,-0.10743178426928734,-0.1,1,285.0,526.0,1.0,1399.0,1,267.7704647192138
1074,1074,-0.8849563849325193,-0.9,1,393.0,996.0,1.0,241.0,1,34.51308452024422
1075,1075,0.722584105399553,0.7,0,494.0,659.0,0.0,337.0,1,83.22476838013411
1076,1076,0.13679039035257157,0.1,0,435.0,594.0,0.0,1061.0,1,258.9628828942285
1077,1077,-0.8073940781627569,-0.8,1,439.0,763.0,1.0,278.0,1,57.78177655117294
1078,1078,-0.029292544197151882,-0.0,1,371.0,804.0,1.0,1195.0,1,291.21223674085445
1079,1079,0.9663833011376921,1.0,0,431.0,701.0,0.0,328.0,1,10.085009658692368
1080,1080,-0.021190495847557944,-0.0,1,273.0,626.0,1.0,601.0,1,293.64285124573263
1081,1081,0.1716627770451562,0.2,0,286.0,848.0,0.0,1686.0,1,248.50116688645315
1082,1082,-0.05039399077694795,-0.1,1,475.0,541.0,1.0,1794.0,1,284.8818027669156
1083,1083,-0.1433498699361495,-0.1,1,324.0,934.0,1.0,982.0,1,256.9950390191552
1084,1084,-0.10286057319735287,-0.1,1,440.0,909.0,1.0,771.0,1,269.14182804079417
1085,1085,-0.32376187299587933,-0.3,1,340.0,878.0,1.0,532.0,1,202.8714381012362
1086,1086,-0.9183912825622662,-0.9,1,391.0,825.0,1.0,354.0,1,24.48261523132014
1087,1087,-0.3837367404421672,-0.4,1,348.0,867.0,1.0,505.0,1,184.87897786734985
1088,1088,0.005154857273839353,0.0,0,367.0,610.0,0.0,1323.0,1,298.4535428178482
1089,1089,-0.8571020169423775,-0.9,1,262.0,776.0,1.0,162.0,1,42.86939491728674
1090,1090,0.3491739939030918,0.3,0,353.0,841.0,0.0,476.0,1,195.24780182907247
1091,1091,-0.4849692010794897,-0.5,1,465.0,968.0,1.0,387.0,1,154.5092396761531
1092,1092,0.5154215966076294,0.5,0,277.0,805.0,0.0,538.0,1,145.37352101771117
1093,1093,-0.5925433394636046,-0.6,1,408.0,980.0,1.0,342.0,1,122.23699816091862
1094,1094,0.39401870351861,0.4,0,444.0,602.0,0.0,524.0,1,181.794388944417
1095,1095,-0.9596056060303557,-1.0,1,453.0,602.0,1.0,185.0,1,12.118318190893284
1096,1096,0.793365959669833,0.8,0,429.0,683.0,0.0,428.0,1,61.99021209905009
1097,1097,0.5067957303951067,0.5,0,368.0,598.0,0.0,444.0,1,147.96128088146799
1098,1098,-0.8133527885511684,-0.8,1,312.0,860.0,1.0,148.0,1,55.994163434649465
1099,1099,-0.12125537951604803,-0.1,1,367.0,949.0,1.0,1114.0,1,263.6233861451856
1100,1100,0.820073922433193,0.8,0,495.0,851.0,0.0,204.0,1,53.9778232700421
1101,1101,0.6609936114588928,0.7,0,284.0,580.0,0.0,306.0,1,101.70191656233216
1102,1102,0.5308977880473584,0.5,0,294.0,655.0,0.0,381.0,1,140.73066358579246
1103,1103,0.5963292167357495,0.6,0,337.0,591.0,0.0,242.0,1,121.10123497927516
1104,1104,0.22817658785812012,0.2,0,478.0,655.0,0.0,827.0,1,231.54702364256397
1105,1105,0.1748511393165162,0.2,0,308.0,752.0,0.0,560.0,1,247.54465820504515
1106,1106,-0.15542643014099022,-0.2,1,308.0,975.0,1.0,717.0,1,253.37207095770293
1107,1107,-0.5152160461318536,-0.5,1,425.0,988.0,1.0,487.0,1,145.43518616044392
1108,1108,0.09981726447511274,0.1,0,301.0,744.0,0.0,595.0,1,270.05482065746617
1109,1109,0.2470323173813347,0.2,0,438.0,794.0,0.0,538.0,1,225.8903047855996
1110,1110,0.7182149970780576,0.7,0,339.0,534.0,0.0,387.0,1,84.53550087658273
1111,1111,0.43509073095301654,0.4,0,448.0,621.0,0.0,531.0,1,169.47278071409505
1112,1112,0.15004374827517197,0.2,0,382.0,898.0,0.0,450.0,1,254.9868755174484
1113,1113,-0.6358669389986726,-0.6,1,323.0,901.0,1.0,316.0,1,109.23991830039822
1114,1114,-0.18078898927909282,-0.2,1,320.0,898.0,1.0,452.0,1,245.76330321627216
1115,1115,0.6215076453097748,0.6,0,351.0,930.0,0.0,339.0,1,113.54770640706758
1116,1116,0.887872982573235,0.9,0,391.0,851.0,0.0,328.0,1,33.6381052280295
1117,1117,-0.9210199040479454,-0.9,1,486.0,858.0,1.0,256.0,1,23.69402878561637
1118,1118,0.4136424414979447,0.4,0,398.0,882.0,0.0,340.0,1,175.90726755061658
1119,1119,0.9904382538242156,1.0,0,279.0,771.0,0.0,150.0,1,2.8685238527353274
1120,1120,0.3829949224730702,0.4,0,398.0,762.0,0.0,390.0,1,185.10152325807894
1121,1121,0.28592539752799273,0.3,0,452.0,645.0,0.0,483.0,1,214.2223807416022
1122,1122,0.48790864772225095,0.5,0,277.0,887.0,0.0,506.0,1,153.62740568332472
1123,1123,0.8225508012708382,0.8,0,262.0,574.0,0.0,314.0,1,53.23475961874853
1124,1124,-0.08133265006973311,-0.1,1,305.0,552.0,1.0,733.0,1,275.60020497908005
1125,1125,0.6799792005535057,0.7,0,357.0,759.0,0.0,404.0,1,96.00623983394829
1126,1126,0.03767014610696329,0.0,0,390.0,884.0,0.0,1106.0,1,288.69895616791104
1127,1127,-0.06066497850655139,-0.1,1,406.0,980.0,1.0,1344.0,1,281.8005064480346
1128,1128,-0.8259940832291526,-0.8,1,463.0,677.0,1.0,260.0,1,52.20177503125423
1129,1129,-0.29800747065964117,-0.3,1,329.0,570.0,1.0,591.0,1,210.59775880210765
1130,1130,-0.7087460873777622,-0.7,1,304.0,678.0,1.0,348.0,1,87.37617378667133
1131,1131,0.3138312367657212,0.3,0,398.0,773.0,0.0,739.0,1,205.85062897028362
1132,1132,-0.5483473441591944,-0.5,1,313.0,961.0,1.0,306.0,1,135.4957967522417
1133,1133,-0.5683685440210642,-0.6,1,293.0,633.0,1.0,504.0,1,129.48943679368074
1134,1134,-0.6500288834773218,-0.7,1,259.0,949.0,1.0,422.0,1,104.99133495680346
1135,1135,0.44313053314021,0.4,0,273.0,519.0,0.0,628.0,1,167.06084005793699
1136,1136,-0.5676939846992002,-0.6,1,286.0,534.0,1.0,340.0,1,129.69180459023994
1137,1137,-0.8593331225001628,-0.9,1,340.0,882.0,1.0,288.0,1,42.20006324995116
1138,1138,0.7786962952263035,0.8,0,443.0,784.0,0.0,313.0,1,66.39111143210896
1139,1139,-0.7399679485599442,-0.7,1,263.0,861.0,1.0,256.0,1,78.00961543201674
1140,1140,-0.4121311362431772,-0.4,1,395.0,812.0,1.0,403.0,1,176.36065912704683
1141,1141,0.6514951333735239,0.7,0,347.0,555.0,0.0,348.0,1,104.55145998794282
1142,1142,-0.26255372526941767,-0.3,1,328.0,588.0,1.0,614.0,1,221.2338824191747
1143,1143,0.1822918978416348,0.2,0,378.0,813.0,0.0,569.0,1,245.31243064750956
1144,1144,-0.17213597037615025,-0.2,1,359.0,603.0,1.0,1018.0,1,248.35920888715492
1145,1145,-0.5132751116059415,-0.5,1,422.0,765.0,1.0,363.0,1,146.01746651821753
1146,1146,-0.1392202530490425,-0.1,1,398.0,998.0,1.0,724.0,1,258.23392408528724
1147,1147,0.16409904366131634,0.2,0,414.0,674.0,0.0,742.0,1,250.7702869016051
1148,1148,-0.15305754897045465,-0.2,1,369.0,948.0,1.0,1883.0,1,254.08273530886362
1149,1149,0.30086000244827016,0.3,0,352.0,821.0,0.0,647.0,1,209.74199926551896
1150,1150,-0.2634688431371477,-0.3,1,271.0,825.0,1.0,484.0,1,220.95934705885568
1151,1151,-0.7410748734278263,-0.7,1,395.0,688.0,1.0,297.0,1,77.67753797165211
1152,1152,-0.21302253746254007,-0.2,1,443.0,789.0,1.0,488.0,1,236.09323876123798
1153,1153,0.623124005954077,0.6,0,287.0,742.0,0.0,351.0,1,113.06279821377689
1154,1154,0.2256319495627115,0.2,0,439.0,657.0,0.0,414.0,1,232.31041513118655
1155,1155,0.4358767302263842,0.4,0,408.0,529.0,0.0,413.0,1,169.23698093208475
1156,1156,0.8913922264868628,0.9,0,346.0,727.0,0.0,167.0,1,32.582332053941165
1157,1157,-0.08699790203303226,-0.1,1,396.0,501.0,1.0,573.0,1,273.90062939009033
1158,1158,-0.3258544637014329,-0.3,1,469.0,967.0,1.0,384.0,1,202.24366088957012
1159,1159,-0.22314276981420655,-0.2,1,337.0,561.0,1.0,752.0,1,233.05716905573803
1160,1160,0.29515292305879504,0.3,0,330.0,717.0,0.0,513.0,1,211.4541230823615
1161,1161,-0.7544780348374702,-0.8,1,427.0,732.0,1.0,341.0,1,73.65658954875893
1162,1162,-0.8715813028442176,-0.9,1,466.0,869.0,1.0,235.0,1,38.52560914673471
1163,1163,-0.5454517902810454,-0.5,1,302.0,980.0,1.0,408.0,1,136.36446291568637
1164,1164,-0.30646984096415286,-0.3,1,456.0,500.0,1.0,624.0,1,208.05904771075413
1165,1165,-0.8733178559165173,-0.9,1,465.0,971.0,1.0,204.0,1,38.0046432250448
1166,1166,0.6107517742152901,0.6,0,321.0,699.0,0.0,380.0,1,116.77446773541295
1167,1167,0.806619993282971,0.8,0,483.0,584.0,0.0,173.0,1,58.014002015108716
1168,1168,-0.3961389986470083,-0.4,1,475.0,607.0,1.0,718.0,1,181.1583004058975
1169,1169,-0.07673738150354659,-0.1,1,347.0,890.0,1.0,523.0,1,276.978785548936
1170,1170,-0.9682574851999821,-1.0,1,285.0,506.0,1.0,279.0,1,9.522754440005365
1171,1171,-0.8434994141918237,-0.8,1,379.0,907.0,1.0,284.0,1,46.950175742452885
1172,1172,-0.2662597685026782,-0.3,1,467.0,944.0,1.0,1109.0,1,220.12206944919654
1173,1173,-0.9175567179943891,-0.9,1,364.0,674.0,1.0,392.0,1,24.73298460168327
1174,1174,0.5699209434390795,0.6,0,457.0,802.0,0.0,301.0,1,129.02371696827615
1175,1175,-0.8407582050980389,-0.8,1,279.0,975.0,1.0,246.0,1,47.77253847058833
1176,1176,0.3809922998980053,0.4,0,492.0,795.0,0.0,493.0,1,185.7023100305984
1177,1177,0.0021455802292749127,0.0,0,385.0,773.0,0.0,742.0,1,299.3563259312175
1178,1178,-0.28119468979116324,-0.3,1,260.0,532.0,1.0,438.0,1,215.64159306265103
1179,1179,-0.5790529298271245,-0.6,1,418.0,564.0,1.0,328.0,1,126.28412105186264
1180,1180,0.8070947419316852,0.8,0,280.0,843.0,0.0,267.0,1,57.87157742049445
1181,1181,-0.11751364792776031,-0.1,1,357.0,847.0,0.0,2046.0,0,264.7459056216719
1182,1182,0.01333623999899447,0.0,0,374.0,652.0,0.0,1174.0,1,295.99912800030165
1183,1183,-0.3891239691071502,-0.4,1,320.0,950.0,1.0,530.0,1,183.26280926785495
1184,1184,-0.8861808741932993,-0.9,1,252.0,531.0,1.0,137.0,1,34.14573774201022
1185,1185,0.34590162694533877,0.3,0,345.0,766.0,0.0,389.0,1,196.22951191639837
1186,1186,0.1826647808943236,0.2,0,461.0,669.0,0.0,820.0,1,245.20056573170294
1187,1187,0.2047982137132136,0.2,0,343.0,985.0,0.0,702.0,1,238.56053588603592
1188,1188,-0.446237134666013,-0.4,1,369.0,872.0,1.0,359.0,1,166.1288596001961
1189,1189,0.4110980181929864,0.4,0,272.0,748.0,0.0,760.0,1,176.67059454210408
1190,1190,-0.7299383938136346,-0.7,1,474.0,673.0,1.0,323.0,1,81.01848185590963
1191,1191,-0.07095211182216499,-0.1,1,426.0,884.0,1.0,700.0,1,278.7143664533505
1192,1192,0.9270918403969506,0.9,0,422.0,813.0,0.0,445.0,1,21.872447880914827
1193,1193,0.044435818220884604,0.0,0,391.0,947.0,1.0,1802.0,0,286.6692545337346
1194,1194,-0.059613467401884224,-0.1,1,326.0,604.0,1.0,780.0,1,282.1159597794347
1195,1195,-0.8700330679428538,-0.9,1,323.0,858.0,1.0,199.0,1,38.99007961714385
1196,1196,0.6018006095521828,0.6,0,388.0,850.0,0.0,282.0,1,119.45981713434514
1197,1197,-0.69510715137726,-0.7,1,289.0,738.0,1.0,293.0,1,91.467854586822
1198,1198,0.7532870020882139,0.8,0,297.0,775.0,0.0,338.0,1,74.01389937353584
1199,1199,-0.042254069777258874,-0.0,1,415.0,908.0,0.0,1137.0,0,287.32377906682234
1200,1200,-0.8333227158015082,-0.8,1,455.0,628.0,1.0,217.0,1,50.00318525954754
1201,1201,-0.006636920754097719,-0.0,1,445.0,921.0,0.0,674.0,0,298.0089237737707
1202,1202,-0.5483078913888799,-0.5,1,428.0,928.0,1.0,434.0,1,135.50763258333603
1203,1203,-0.9360822607413064,-0.9,1,397.0,701.0,1.0,202.0,1,19.17532177760808
1204,1204,0.7905506219354499,0.8,0,420.0,934.0,0.0,366.0,1,62.834813419365034
1205,1205,0.6823793619443992,0.7,0,401.0,703.0,0.0,256.0,1,95.28619141668024
1206,1206,0.2627447199591204,0.3,0,494.0,603.0,0.0,483.0,1,221.17658401226387
1207,1207,0.5596957593644203,0.6,0,436.0,741.0,0.0,353.0,1,132.09127219067392
1208,1208,0.6448083373761468,0.6,0,338.0,966.0,0.0,456.0,1,106.55749878715595
1209,1209,0.14212873588984887,0.1,0,464.0,870.0,0.0,1996.0,1,257.36137923304534
1210,1210,-0.8140801918448723,-0.8,1,356.0,620.0,1.0,234.0,1,55.775942446538295
1211,1211,0.07028019223831738,0.1,0,371.0,978.0,1.0,621.0,0,278.9159423285048
1212,1212,0.4760955247221348,0.5,0,485.0,684.0,0.0,381.0,1,157.17134258335957
1213,1213,0.9730015297542742,1.0,0,273.0,811.0,0.0,206.0,1,8.099541073717731
1214,1214,-0.38758134801727806,-0.4,1,418.0,922.0,1.0,400.0,1,183.72559559481658
1215,1215,-0.7111579753530393,-0.7,1,284.0,624.0,1.0,292.0,1,86.65260739408822
1216,1216,0.8950181970799376,0.9,0,296.0,909.0,0.0,285.0,1,31.49454087601873
1217,1217,0.9137351014319279,0.9,0,443.0,578.0,0.0,239.0,1,25.87946957042162
1218,1218,-0.5668307476454841,-0.6,1,319.0,976.0,1.0,415.0,1,129.95077570635476
1219,1219,-0.7355349916545133,-0.7,1,432.0,512.0,1.0,296.0,1,79.339502503646
1220,1220,-0.58880293251792,-0.6,1,388.0,750.0,1.0,432.0,1,123.359120244624
1221,1221,0.31051269190093245,0.3,0,277.0,772.0,0.0,461.0,1,206.84619242972028
1222,1222,-0.642644113376468,-0.6,1,467.0,577.0,1.0,396.0,1,107.20676598705961
1223,1223,-0.16946255401011734,-0.2,1,279.0,618.0,1.0,613.0,1,249.1612337969648
1224,1224,-0.06461993968877144,-0.1,1,424.0,682.0,1.0,824.0,1,280.61401809336854
1225,1225,0.8762308927129145,0.9,0,272.0,679.0,0.0,349.0,1,37.130732186125634
1226,1226,0.1768967951310889,0.2,0,354.0,699.0,0.0,1037.0,1,246.93096146067333
1227,1227,-0.5073395989750118,-0.5,1,308.0,694.0,1.0,418.0,1,147.79812030749645
1228,1228,-0.760214407407175,-0.8,1,373.0,858.0,1.0,259.0,1,71.93567777784749
1229,1229,0.2131953614871296,0.2,0,456.0,786.0,0.0,518.0,1,236.04139155386113
1230,1230,-0.9844893993879327,-1.0,1,250.0,853.0,1.0,377.0,1,4.653180183620198
1231,1231,0.16629112848567051,0.2,0,298.0,543.0,0.0,489.0,1,250.11266145429886
1232,1232,0.6355348774300622,0.6,0,270.0,957.0,0.0,293.0,1,109.33953677098134
1233,1233,0.14000681779200508,0.1,0,311.0,611.0,0.0,888.0,1,257.99795466239846
1234,1234,0.25438332733102853,0.3,0,263.0,902.0,0.0,565.0,1,223.68500180069145
1235,1235,0.204192669716311,0.2,0,413.0,902.0,0.0,985.0,1,238.7421990851067
1236,1236,0.5674596896190658,0.6,0,392.0,531.0,0.0,387.0,1,129.76209311428028
1237,1237,0.7963322200889145,0.8,0,307.0,740.0,0.0,423.0,1,61.10033397332566
1238,1238,-0.37299140303680667,-0.4,1,440.0,904.0,1.0,836.0,1,188.102579088958
1239,1239,-0.45873411599724445,-0.5,1,451.0,867.0,1.0,412.0,1,162.37976520082665
1240,1240,0.06657009049557683,0.1,0,411.0,623.0,0.0,986.0,1,280.02897285132696
1241,1241,0.23827388854166176,0.2,0,461.0,890.0,0.0,589.0,1,228.51783343750148
1242,1242,0.10085519923379405,0.1,0,467.0,546.0,0.0,1077.0,1,269.7434402298618
1243,1243,0.160723059436906,0.2,0,254.0,765.0,0.0,1181.0,1,251.7830821689282
1244,1244,0.6032106549808383,0.6,0,422.0,928.0,0.0,580.0,1,119.03680350574852
1245,1245,0.690975547579783,0.7,0,458.0,872.0,0.0,600.0,1,92.70733572606511
1246,1246,-0.7693019534131949,-0.8,1,272.0,852.0,1.0,186.0,1,69.20941397604155
1247,1247,0.5343511135022831,0.5,0,376.0,644.0,0.0,310.0,1,139.69466594931507
1248,1248,-0.2844567862323364,-0.3,1,361.0,661.0,1.0,628.0,1,214.6629641302991
1249,1249,-0.725695721838314,-0.7,1,461.0,765.0,1.0,234.0,1,82.29128344850581
1250,1250,-0.5895628550666658,-0.6,1,406.0,799.0,1.0,315.0,1,123.13114348000025
1251,1251,0.7557946737669754,0.8,0,398.0,715.0,0.0,217.0,1,73.26159786990738
1252,1252,-0.12000543122759244,-0.1,1,426.0,930.0,0.0,874.0,0,263.99837063172225
1253,1253,-0.49172489618787485,-0.5,1,364.0,660.0,1.0,826.0,1,152.48253114363754
1254,1254,-0.774625854694371,-0.8,1,384.0,968.0,1.0,368.0,1,67.61224359168871
1255,1255,0.5101539794321872,0.5,0,316.0,823.0,0.0,491.0,1,146.95380617034382
1256,1256,-0.14794668581753312,-0.1,1,301.0,850.0,1.0,529.0,1,255.61599425474006
1257,1257,0.17926796813217027,0.2,0,393.0,723.0,0.0,424.0,1,246.2196095603489
1258,1258,0.10622620932151694,0.1,0,426.0,610.0,0.0,944.0,1,268.1321372035449
1259,1259,0.9455896004450333,0.9,0,265.0,580.0,0.0,235.0,1,16.32311986649002
1260,1260,-0.35659641877380377,-0.4,1,432.0,997.0,1.0,441.0,1,193.02107436785886
1261,1261,0.5148348318093265,0.5,0,483.0,514.0,0.0,383.0,1,145.54955045720203
1262,1262,-0.6412027168509269,-0.6,1,268.0,757.0,1.0,295.0,1,107.63918494472193
1263,1263,-0.004462002537620746,-0.0,1,417.0,998.0,0.0,1065.0,0,298.6613992387138
1264,1264,-0.4754797470730401,-0.5,1,323.0,854.0,1.0,503.0,1,157.35607587808798
1265,1265,0.9605142116654029,1.0,0,317.0,936.0,0.0,197.0,1,11.845736500379145
1266,1266,0.24077269680280078,0.2,0,316.0,646.0,0.0,1038.0,1,227.76819095915977
1267,1267,0.8532137125248498,0.9,0,373.0,759.0,0.0,268.0,1,44.03588624254506
1268,1268,-0.5945778197842009,-0.6,1,408.0,940.0,1.0,342.0,1,121.62665406473974
1269,1269,0.054118676497942,0.1,0,439.0,581.0,1.0,1360.0,0,283.7643970506174
1270,1270,-0.8608646858991646,-0.9,1,425.0,884.0,1.0,261.0,1,41.74059423025061
1271,1271,-0.6734613210572462,-0.7,1,399.0,954.0,1.0,707.0,1,97.96160368282614
1272,1272,-0.7064843350057524,-0.7,1,443.0,922.0,1.0,245.0,1,88.05469949827429
1273,1273,-0.7134509636299913,-0.7,1,351.0,704.0,1.0,355.0,1,85.96471091100261
1274,1274,0.057070670588228456,0.1,0,441.0,726.0,1.0,713.0,0,282.87879882353144
1275,1275,0.1514731180581126,0.2,0,323.0,825.0,0.0,532.0,1,254.55806458256623
1276,1276,-0.5524543230697041,-0.6,1,491.0,717.0,1.0,472.0,1,134.26370307908877
1277,1277,-0.2559380359690553,-0.3,1,261.0,751.0,1.0,648.0,1,223.2185892092834
1278,1278,-0.9235308032204768,-0.9,1,407.0,891.0,1.0,252.0,1,22.94075903385697
1279,1279,0.10545791477635746,0.1,0,300.0,507.0,1.0,1023.0,0,268.3626255670928
1280,1280,-0.03864946619062315,-0.0,1,365.0,618.0,0.0,1027.0,0,288.40516014281303
1281,1281,0.2979445823715776,0.3,0,429.0,538.0,0.0,483.0,1,210.6166252885267
1282,1282,0.1641457195067746,0.2,0,407.0,597.0,0.0,476.0,1,250.75628414796762
1283,1283,0.18389667177122182,0.2,0,283.0,726.0,0.0,791.0,1,244.83099846863345
1284,1284,0.8351167013979783,0.8,0,266.0,857.0,0.0,207.0,1,49.4649895806065
1285,1285,0.16557806108004924,0.2,0,327.0,659.0,0.0,594.0,1,250.32658167598524
1286,1286,-0.39994544021013123,-0.4,1,394.0,813.0,1.0,373.0,1,180.01636793696062
1287,1287,-0.0926659664873577,-0.1,1,405.0,826.0,1.0,1559.0,1,272.2002100537927
1288,1288,-0.8303542503893069,-0.8,1,333.0,713.0,1.0,314.0,1,50.89372488320794
1289,1289,-0.9688200820748485,-1.0,1,283.0,507.0,1.0,150.0,1,9.353975377545453
1290,1290,-0.6516301108919627,-0.7,1,307.0,591.0,1.0,342.0,1,104.5109667324112
1291,1291,0.6170168419197442,0.6,0,322.0,680.0,0.0,428.0,1,114.89494742407675
1292,1292,0.3855137328027223,0.4,0,421.0,764.0,0.0,455.0,1,184.3458801591833
1293,1293,-0.04927532625982911,-0.0,1,343.0,594.0,0.0,1153.0,0,285.2174021220513
1294,1294,0.44287173993773754,0.4,0,495.0,898.0,0.0,377.0,1,167.13847801867874
