,trial,coherence,coherence_bin,correct_side,target_onset,checker_onset,decision,decision_time,correct_decision,g0,gSlope
0,0,0.8386777579693308,0.8,0,298.0,971.0,0.0,211.0,1,0.4763132770229308,0.0
1,1,0.6046941002822903,0.6,0,399.0,635.0,0.0,376.0,1,0.26165382735537057,0.0
2,2,-0.49973972907417186,-0.5,1,270.0,672.0,1.0,238.0,1,0.5416830714560504,0.0
3,3,-0.8805680996122742,-0.9,1,402.0,665.0,1.0,173.0,1,0.3721135025618787,0.0
4,4,0.668410245651377,0.7,0,439.0,898.0,0.0,423.0,1,0.3013872315275661,0.0
5,5,-0.43814975236457654,-0.4,1,494.0,844.0,1.0,302.0,1,0.9643676768989645,0.0
6,6,0.010414614969390223,0.0,0,406.0,523.0,1.0,781.0,0,0.10190767055343664,0.0
7,7,0.5856688017793392,0.6,0,415.0,927.0,0.0,298.0,1,0.37428808434669925,0.0
8,8,-0.44483923829888905,-0.4,1,263.0,937.0,1.0,300.0,1,0.06284602737122202,0.0
9,9,0.9670345975206127,1.0,0,398.0,944.0,0.0,288.0,1,0.16996426238521745,0.0
10,10,-0.8682409184629662,-0.9,1,390.0,923.0,1.0,377.0,1,0.04491814178240827,0.0
11,11,0.11996407696779987,0.1,0,298.0,643.0,0.0,709.0,1,0.931680652062381,0.0
12,12,-0.6470376215373954,-0.6,1,332.0,540.0,1.0,438.0,1,0.5552184935570064,0.0
13,13,-0.6792868824240883,-0.7,1,348.0,617.0,1.0,315.0,1,0.28171335438676615,0.0
14,14,0.10851731698515832,0.1,0,270.0,769.0,0.0,281.0,1,0.5253063037381391,0.0
15,15,0.2183613863874021,0.2,0,315.0,885.0,0.0,330.0,1,0.7652348993004802,0.0
16,16,0.7621187266511331,0.8,0,358.0,513.0,0.0,269.0,1,0.4726298388030076,0.0
17,17,-0.9230498726664762,-0.9,1,267.0,640.0,1.0,303.0,1,0.22570349107357768,0.0
18,18,-0.2419454542933317,-0.2,1,313.0,959.0,1.0,438.0,1,0.01778894192244329,0.0
19,19,-0.18905941190908448,-0.2,1,271.0,863.0,0.0,796.0,0,0.9629516843964504,0.0
20,20,-0.41725921080536255,-0.4,1,309.0,997.0,1.0,264.0,1,0.18339112680264114,0.0
21,21,0.3962461643900055,0.4,0,370.0,714.0,0.0,356.0,1,0.07214603747605519,0.0
22,22,0.3550802782315934,0.4,0,371.0,807.0,0.0,322.0,1,0.5784420655165009,0.0
23,23,0.28341867225726536,0.3,0,471.0,802.0,0.0,607.0,1,0.5489554713618917,0.0
24,24,0.12261667390587339,0.1,0,365.0,771.0,0.0,1814.0,1,0.0973245218148795,0.0
25,25,-0.5185071410942217,-0.5,1,432.0,822.0,1.0,206.0,1,0.5168123439205778,0.0
26,26,-0.3629324104556688,-0.4,1,396.0,854.0,1.0,330.0,1,0.11641082370155842,0.0
27,27,0.2638182483425944,0.3,0,369.0,872.0,0.0,409.0,1,0.5479453998211348,0.0
28,28,-0.1938464869538883,-0.2,1,455.0,899.0,1.0,176.0,1,0.9602387188835666,0.0
29,29,-0.6113276974124242,-0.6,1,438.0,987.0,1.0,655.0,1,0.2682991823832285,0.0
30,30,-0.0746074342972256,-0.1,1,309.0,768.0,1.0,633.0,1,0.7192795014312785,0.0
31,31,-0.17165895116505103,-0.2,1,288.0,692.0,1.0,500.0,1,0.6556962628966635,0.0
32,32,-0.07507816667119371,-0.1,1,328.0,900.0,1.0,572.0,1,0.5280226997469384,0.0
33,33,-0.7129846785178744,-0.7,1,281.0,644.0,1.0,245.0,1,0.8820622001763323,0.0
34,34,-0.7473390793918779,-0.7,1,467.0,588.0,1.0,195.0,1,0.7528628223681842,0.0
35,35,0.9219870373206605,0.9,0,269.0,895.0,0.0,156.0,1,0.6531194143866406,0.0
36,36,-0.6009690095425184,-0.6,1,341.0,945.0,1.0,214.0,1,0.6983485817331305,0.0
37,37,0.6594663732043997,0.7,0,388.0,869.0,0.0,173.0,1,0.8110826637936926,0.0
38,38,-0.09087532622251104,-0.1,1,492.0,601.0,1.0,307.0,1,0.7319978446018672,0.0
39,39,-0.18429730622465934,-0.2,1,438.0,633.0,1.0,679.0,1,0.09123406675272772,0.0
40,40,0.8171860029053426,0.8,0,403.0,955.0,0.0,222.0,1,0.1703719913527617,0.0
41,41,-0.635444842990811,-0.6,1,417.0,699.0,1.0,184.0,1,0.6728774919398415,0.0
42,42,-0.945634135443554,-0.9,1,321.0,611.0,1.0,228.0,1,0.35802639297597494,0.0
43,43,0.49714252525408775,0.5,0,498.0,543.0,0.0,369.0,1,0.3065359652579751,0.0
44,44,-0.6658357841976608,-0.7,1,275.0,554.0,1.0,251.0,1,0.9262896507082657,0.0
45,45,-0.8778187120220209,-0.9,1,301.0,737.0,1.0,152.0,1,0.6941608807721135,0.0
46,46,-0.6999170004318349,-0.7,1,418.0,590.0,1.0,272.0,1,0.656862864592845,0.0
47,47,-0.8807501810103973,-0.9,1,270.0,553.0,1.0,247.0,1,0.8395500999937032,0.0
48,48,-0.7756856254508395,-0.8,1,415.0,799.0,1.0,236.0,1,0.9435410332772052,0.0
49,49,-0.931192065809817,-0.9,1,334.0,903.0,1.0,213.0,1,0.46823486048307184,0.0
50,50,-0.16357319396658432,-0.2,1,367.0,618.0,1.0,735.0,1,0.7759306978315093,0.0
51,51,0.22609012484892244,0.2,0,320.0,807.0,0.0,313.0,1,0.45783767933551534,0.0
52,52,0.3939497213735532,0.4,0,439.0,925.0,0.0,196.0,1,0.9397739419889543,0.0
53,53,0.1113926976015347,0.1,0,442.0,875.0,0.0,633.0,1,0.867001238933736,0.0
54,54,0.5827097107645898,0.6,0,356.0,566.0,0.0,198.0,1,0.596367423726143,0.0
55,55,-0.9806895481930724,-1.0,1,493.0,621.0,1.0,136.0,1,0.3933528400652897,0.0
56,56,0.08217920602983364,0.1,0,251.0,540.0,0.0,629.0,1,0.10941168043100491,0.0
57,57,-0.4783525676974565,-0.5,1,492.0,533.0,1.0,225.0,1,0.2568289845457179,0.0
58,58,-0.16393076045810395,-0.2,1,478.0,876.0,0.0,536.0,0,0.3445465710370612,0.0
59,59,0.5250130845318159,0.5,0,315.0,661.0,0.0,144.0,1,0.9106997270629196,0.0
60,60,0.6766619228085833,0.7,0,462.0,509.0,0.0,249.0,1,0.3237417317635034,0.0
61,61,0.3827757985726026,0.4,0,388.0,937.0,0.0,245.0,1,0.1991295699662906,0.0
62,62,-0.2618827344583756,-0.3,1,253.0,864.0,1.0,303.0,1,0.6620633976314284,0.0
63,63,-0.9733572070136189,-1.0,1,399.0,817.0,1.0,254.0,1,0.9696556066240056,0.0
64,64,-0.9497903783168413,-0.9,1,481.0,710.0,1.0,269.0,1,0.05139281072930735,0.0
65,65,-0.5818096700882747,-0.6,1,420.0,533.0,1.0,307.0,1,0.5453036266694916,0.0
66,66,-0.5207906799707325,-0.5,1,455.0,740.0,1.0,235.0,1,0.3155134021044941,0.0
67,67,0.28071674706218563,0.3,0,423.0,582.0,0.0,285.0,1,0.10052262045844806,0.0
68,68,-0.4139317262779574,-0.4,1,345.0,547.0,1.0,258.0,1,0.21040971900193983,0.0
69,69,-0.035475380378606536,-0.0,1,339.0,983.0,0.0,418.0,0,0.16145360361531158,0.0
70,70,-0.7941472502663238,-0.8,1,444.0,903.0,1.0,203.0,1,0.4335491736703875,0.0
71,71,0.7230202880460315,0.7,0,392.0,906.0,0.0,232.0,1,0.7558483989468049,0.0
72,72,0.8287574735772227,0.8,0,461.0,823.0,0.0,156.0,1,0.5442681388226985,0.0
73,73,-0.258811288500711,-0.3,1,475.0,643.0,1.0,472.0,1,0.25219301152267515,0.0
74,74,-0.42481618835244617,-0.4,1,481.0,569.0,1.0,360.0,1,0.6717823842826967,0.0
75,75,0.850527531839985,0.9,0,265.0,590.0,0.0,305.0,1,0.18759025092884407,0.0
76,76,-0.44387461002787587,-0.4,1,332.0,991.0,1.0,247.0,1,0.6013118171240033,0.0
77,77,-0.00020435855672529257,-0.0,1,354.0,619.0,0.0,597.0,0,0.5932692409641328,0.0
78,78,0.8053464928065646,0.8,0,415.0,836.0,0.0,369.0,1,0.09277702584207215,0.0
79,79,-0.11720220260783698,-0.1,1,478.0,800.0,1.0,522.0,1,0.9480241179766893,0.0
80,80,0.6902072520489271,0.7,0,465.0,785.0,0.0,180.0,1,0.9246249043545385,0.0
81,81,0.874732880899497,0.9,0,292.0,875.0,0.0,153.0,1,0.17437025723918553,0.0
82,82,0.3730780764384354,0.4,0,358.0,875.0,0.0,387.0,1,0.2870405402730243,0.0
83,83,-0.18801627434300183,-0.2,1,454.0,965.0,1.0,681.0,1,0.3985927132943823,0.0
84,84,-0.28507439294688863,-0.3,1,256.0,742.0,1.0,392.0,1,0.3463434489769144,0.0
85,85,0.7310930177323993,0.7,0,468.0,940.0,0.0,232.0,1,0.16688982177300637,0.0
86,86,0.030045817025922572,0.0,0,296.0,736.0,0.0,428.0,1,0.9629799361614996,0.0
87,87,0.5596449256330709,0.6,0,465.0,713.0,0.0,252.0,1,0.423860996004805,0.0
88,88,-0.13631020340469546,-0.1,1,383.0,939.0,1.0,418.0,1,0.6039984767462873,0.0
89,89,0.45828248454764875,0.5,0,330.0,905.0,0.0,335.0,1,0.02917689276993085,0.0
90,90,-0.15471925296488065,-0.2,1,390.0,618.0,1.0,432.0,1,0.6852234285537678,0.0
91,91,0.8378684832648977,0.8,0,375.0,777.0,0.0,318.0,1,0.11951682452267254,0.0
92,92,-0.44051102181895163,-0.4,1,455.0,929.0,1.0,476.0,1,0.24840311738756382,0.0
93,93,-0.5823194263891207,-0.6,1,424.0,906.0,1.0,370.0,1,0.5632061847471318,0.0
94,94,0.1554643632743078,0.2,0,254.0,642.0,0.0,834.0,1,0.9895194320918773,0.0
95,95,-0.3355262625990034,-0.3,1,376.0,690.0,1.0,394.0,1,0.16243480461365978,0.0
96,96,0.05691548861991258,0.1,0,259.0,667.0,1.0,584.0,0,0.09853700386014841,0.0
97,97,0.8543692916899748,0.9,0,400.0,577.0,0.0,173.0,1,0.7014692996142798,0.0
98,98,-0.001530768220231682,-0.0,1,482.0,907.0,0.0,541.0,0,0.12883474597452604,0.0
99,99,0.7575077309440763,0.8,0,373.0,900.0,0.0,297.0,1,0.038049902757889886,0.0
100,100,-0.4569817343131519,-0.5,1,458.0,744.0,1.0,218.0,1,0.6489968366681088,0.0
101,101,0.3238969056290515,0.3,0,489.0,746.0,0.0,295.0,1,0.410359780726844,0.0
102,102,0.8903860665791854,0.9,0,331.0,620.0,0.0,249.0,1,0.01969527783258651,0.0
103,103,0.15682416739404736,0.2,0,270.0,888.0,0.0,502.0,1,0.6067785456051283,0.0
104,104,0.7978834593708486,0.8,0,332.0,545.0,0.0,273.0,1,0.44608194661484746,0.0
105,105,-0.7258103892240773,-0.7,1,358.0,524.0,1.0,208.0,1,0.5013637829175283,0.0
106,106,-0.9637182024740147,-1.0,1,316.0,863.0,1.0,271.0,1,0.8909635542210035,0.0
107,107,-0.34131909803683746,-0.3,1,290.0,643.0,1.0,217.0,1,0.5750946699951099,0.0
108,108,0.8983980414346424,0.9,0,422.0,912.0,0.0,276.0,1,0.8983103587580668,0.0
109,109,-0.1291898778420788,-0.1,1,342.0,818.0,1.0,850.0,1,0.6553407382503681,0.0
110,110,-0.4012161748991123,-0.4,1,493.0,721.0,1.0,406.0,1,0.26849721938527005,0.0
111,111,-0.7217484906138965,-0.7,1,341.0,504.0,1.0,225.0,1,0.7422915028454088,0.0
112,112,-0.3270741730735245,-0.3,1,476.0,984.0,1.0,310.0,1,0.91239378196234,0.0
113,113,0.6647187273261914,0.7,0,474.0,521.0,0.0,155.0,1,0.5252573367579574,0.0
114,114,-0.03951046715230233,-0.0,1,299.0,721.0,1.0,500.0,1,0.6481728661265725,0.0
115,115,-0.6365983931923451,-0.6,1,387.0,508.0,1.0,215.0,1,0.8995444645370158,0.0
116,116,-0.5093856562322538,-0.5,1,404.0,737.0,1.0,209.0,1,0.4356014742891786,0.0
117,117,-0.9673415872646767,-1.0,1,393.0,513.0,1.0,324.0,1,0.030636847525379873,0.0
118,118,-0.19145481489380223,-0.2,1,287.0,790.0,1.0,383.0,1,0.526525286656946,0.0
119,119,-0.29688004482461583,-0.3,1,443.0,982.0,1.0,455.0,1,0.4260498971203255,0.0
120,120,0.15572899416934227,0.2,0,257.0,530.0,0.0,843.0,1,0.334821690925445,0.0
121,121,0.05017079767057364,0.1,0,399.0,908.0,0.0,1203.0,1,0.49254099142539176,0.0
122,122,-0.15069236651441353,-0.2,1,392.0,869.0,1.0,719.0,1,0.6868218722404497,0.0
123,123,-0.5078706535285289,-0.5,1,328.0,908.0,1.0,334.0,1,0.343839606799794,0.0
124,124,0.7547054998648528,0.8,0,420.0,871.0,0.0,299.0,1,0.8709465509646246,0.0
125,125,-0.48330962475256434,-0.5,1,356.0,797.0,1.0,277.0,1,0.8498587130595484,0.0
126,126,-0.338770220560068,-0.3,1,281.0,882.0,1.0,727.0,1,0.08442178744016005,0.0
127,127,0.6590572674036379,0.7,0,403.0,511.0,0.0,286.0,1,0.6279887927108525,0.0
128,128,0.1160363568322551,0.1,0,319.0,926.0,1.0,455.0,0,0.3130411229378104,0.0
129,129,0.5175161942917736,0.5,0,258.0,544.0,0.0,148.0,1,0.9294207545778997,0.0
130,130,-0.4770074417728538,-0.5,1,468.0,554.0,1.0,398.0,1,0.11695448870726288,0.0
131,131,-0.5393554840422028,-0.5,1,288.0,613.0,1.0,469.0,1,0.11510889587733564,0.0
132,132,-0.18819568122809627,-0.2,1,367.0,678.0,1.0,465.0,1,0.6705649943313305,0.0
133,133,0.5100545806383341,0.5,0,279.0,674.0,0.0,477.0,1,0.09532821922128443,0.0
134,134,0.46476125970599713,0.5,0,359.0,709.0,0.0,782.0,1,0.02006617321694948,0.0
135,135,-0.5309952547707841,-0.5,1,353.0,722.0,1.0,375.0,1,0.37099840413849194,0.0
136,136,0.8874456856709405,0.9,0,456.0,872.0,0.0,332.0,1,0.12574239760301698,0.0
137,137,-0.9876800344022754,-1.0,1,311.0,528.0,1.0,231.0,1,0.8439848278645333,0.0
138,138,0.03257553647546496,0.0,0,493.0,637.0,0.0,410.0,1,0.9236509173893863,0.0
139,139,0.0699014667602662,0.1,0,317.0,784.0,0.0,609.0,1,0.11801055976665642,0.0
140,140,-0.2097087026639679,-0.2,1,484.0,935.0,1.0,241.0,1,0.3356867248544272,0.0
141,141,-0.7714837016412783,-0.8,1,460.0,833.0,1.0,247.0,1,0.5403022784287955,0.0
142,142,0.28258882114964345,0.3,0,339.0,607.0,0.0,464.0,1,0.6096827112366601,0.0
143,143,-0.4510080889102157,-0.5,1,272.0,521.0,1.0,247.0,1,0.2192740140617575,0.0
144,144,0.4401677172263381,0.4,0,319.0,975.0,0.0,286.0,1,0.6071300938320594,0.0
145,145,-0.12495085441949172,-0.1,1,499.0,529.0,1.0,222.0,1,0.4138894145802313,0.0
146,146,-0.3843030220250312,-0.4,1,352.0,991.0,1.0,437.0,1,0.901200052841008,0.0
147,147,-0.07357178779036899,-0.1,1,363.0,745.0,1.0,272.0,1,0.27792417072387987,0.0
148,148,0.0007142411146927596,0.0,0,347.0,711.0,0.0,652.0,1,0.7456141807201421,0.0
149,149,-0.05762910985239844,-0.1,1,388.0,968.0,0.0,464.0,0,0.47409722711539304,0.0
150,150,-0.5670413741272227,-0.6,1,414.0,733.0,1.0,433.0,1,0.40030384055586676,0.0
151,151,0.8988797243487621,0.9,0,494.0,564.0,0.0,282.0,1,0.0004916398904488695,0.0
152,152,0.6334040728920869,0.6,0,346.0,788.0,0.0,326.0,1,0.38954114575587484,0.0
153,153,-0.892588692794062,-0.9,1,452.0,572.0,1.0,476.0,1,0.06981860491257319,0.0
154,154,-0.05481124039259999,-0.1,1,251.0,929.0,1.0,460.0,1,0.9747196193195612,0.0
155,155,0.22824238075537484,0.2,0,251.0,672.0,0.0,497.0,1,0.8675635454025057,0.0
156,156,-0.8643826425875172,-0.9,1,454.0,547.0,1.0,249.0,1,0.14869016077309571,0.0
157,157,-0.8997141936055846,-0.9,1,423.0,991.0,1.0,266.0,1,0.009633541316225736,0.0
158,158,-0.31462595169832364,-0.3,1,408.0,879.0,1.0,263.0,1,0.08186652084172596,0.0
159,159,-0.12939505082005498,-0.1,1,439.0,658.0,1.0,423.0,1,0.752704889072643,0.0
160,160,0.6911340149160801,0.7,0,436.0,955.0,0.0,279.0,1,0.3396946809626017,0.0
161,161,-0.13430113829626822,-0.1,1,411.0,609.0,1.0,290.0,1,0.47836688288840146,0.0
162,162,-0.2811123612601303,-0.3,1,366.0,860.0,1.0,364.0,1,0.8235145621654827,0.0
163,163,0.19962591838492783,0.2,0,316.0,736.0,0.0,638.0,1,0.29704612365842764,0.0
164,164,-0.43971634400176507,-0.4,1,433.0,833.0,1.0,264.0,1,0.5103663019148812,0.0
165,165,0.3947010833770175,0.4,0,253.0,918.0,0.0,239.0,1,0.4779810953442658,0.0
166,166,0.571145620579258,0.6,0,345.0,769.0,0.0,286.0,1,0.19390208359127747,0.0
167,167,-0.7637052985164756,-0.8,1,475.0,666.0,1.0,159.0,1,0.9958951661931362,0.0
168,168,0.6473125240822617,0.6,0,461.0,542.0,0.0,367.0,1,0.13790156286846444,0.0
169,169,0.8659422225125719,0.9,0,259.0,800.0,0.0,181.0,1,0.9464992030894128,0.0
170,170,-0.579461642294796,-0.6,1,364.0,891.0,1.0,275.0,1,0.2707253298561598,0.0
171,171,-0.15012252183102914,-0.2,1,384.0,603.0,1.0,543.0,1,0.6699946573935326,0.0
172,172,-0.9162106697982335,-0.9,1,303.0,845.0,1.0,162.0,1,0.1767605422857509,0.0
173,173,-0.5687311368873809,-0.6,1,328.0,598.0,1.0,194.0,1,0.5113547785794611,0.0
174,174,-0.6461481144709655,-0.6,1,269.0,974.0,1.0,237.0,1,0.16203823040167764,0.0
175,175,0.6213481270942272,0.6,0,259.0,962.0,0.0,339.0,1,0.3927852111432478,0.0
176,176,-0.24620227090185787,-0.2,1,427.0,800.0,1.0,433.0,1,0.534878360183261,0.0
177,177,-0.27495208385701453,-0.3,1,491.0,748.0,1.0,331.0,1,0.2962363528270179,0.0
178,178,-0.06475811931977371,-0.1,1,431.0,902.0,1.0,1137.0,1,0.42028929614745025,0.0
179,179,-0.8679013316133253,-0.9,1,287.0,602.0,1.0,221.0,1,0.6960766000914844,0.0
180,180,0.6641879562036652,0.7,0,406.0,674.0,0.0,210.0,1,0.8823731421025537,0.0
181,181,0.8510190812243505,0.9,0,401.0,788.0,0.0,291.0,1,0.15105571662060124,0.0
182,182,-0.7405768367152692,-0.7,1,483.0,572.0,1.0,205.0,1,0.452192582531588,0.0
183,183,-0.8497354640218779,-0.8,1,279.0,837.0,1.0,264.0,1,0.35383355457432175,0.0
184,184,-0.2523004481011757,-0.3,1,352.0,688.0,1.0,480.0,1,0.7591459951168439,0.0
185,185,0.5747577813721665,0.6,0,380.0,965.0,0.0,385.0,1,0.21146115691196277,0.0
186,186,0.23262813467139964,0.2,0,371.0,637.0,0.0,442.0,1,0.25943623458466536,0.0
187,187,0.12623169314550853,0.1,0,422.0,632.0,0.0,976.0,1,0.3599287857323422,0.0
188,188,0.03831305591796075,0.0,0,338.0,990.0,0.0,562.0,1,0.9752037410380767,0.0
189,189,0.02702984699126043,0.0,0,300.0,805.0,0.0,285.0,1,0.9324065474959394,0.0
190,190,0.05635127160669828,0.1,0,269.0,886.0,0.0,535.0,1,0.8227159277647913,0.0
191,191,-0.07598328155082679,-0.1,1,421.0,884.0,1.0,395.0,1,0.9523919047045393,0.0
192,192,0.07116380461108829,0.1,0,283.0,824.0,0.0,513.0,1,0.6600275288486771,0.0
193,193,0.7025522199575516,0.7,0,255.0,557.0,0.0,148.0,1,0.16077755055316267,0.0
194,194,-0.9393869318603072,-0.9,1,364.0,805.0,1.0,201.0,1,0.5895247221080879,0.0
195,195,0.030891942216199286,0.0,0,484.0,618.0,1.0,418.0,0,0.560678607070392,0.0
196,196,-0.8030045351530584,-0.8,1,314.0,983.0,1.0,223.0,1,0.5390346749365563,0.0
197,197,-0.5695485768243009,-0.6,1,293.0,869.0,1.0,308.0,1,0.874151939528184,0.0
198,198,-0.37193732119121603,-0.4,1,457.0,872.0,1.0,271.0,1,0.34847350550009526,0.0
199,199,-0.5927154677565376,-0.6,1,332.0,580.0,1.0,268.0,1,0.1490965511622767,0.0
200,200,-0.8494675808299457,-0.8,1,447.0,523.0,1.0,400.0,1,0.21602520777367273,0.0
201,201,-0.1506468925574873,-0.2,1,401.0,861.0,1.0,648.0,1,0.09235270127733042,0.0
202,202,0.039878771039899785,0.0,0,389.0,845.0,1.0,556.0,0,0.3694520817161614,0.0
203,203,0.09768801276285055,0.1,0,400.0,664.0,0.0,536.0,1,0.8993039038072962,0.0
204,204,-0.4607674196859315,-0.5,1,468.0,928.0,1.0,264.0,1,0.24501060186772627,0.0
205,205,0.6373010610048171,0.6,0,422.0,593.0,0.0,265.0,1,0.5557751180214425,0.0
206,206,-0.0481273924280452,-0.0,1,251.0,910.0,1.0,859.0,1,0.6692497882124765,0.0
207,207,-0.2839217971100312,-0.3,1,440.0,760.0,1.0,360.0,1,0.2394345478761799,0.0
208,208,-0.026675451662080185,-0.0,1,347.0,929.0,0.0,494.0,0,0.641279599352612,0.0
209,209,0.992343332464046,1.0,0,429.0,889.0,0.0,232.0,1,0.7790051218795956,0.0
210,210,-0.6652450789515831,-0.7,1,445.0,946.0,1.0,549.0,1,0.17243330766898557,0.0
211,211,-0.789263835041162,-0.8,1,315.0,528.0,1.0,247.0,1,0.8031322146559141,0.0
212,212,-0.18487815945320651,-0.2,1,255.0,800.0,1.0,335.0,1,0.2180015447403032,0.0
213,213,-0.6679094201561759,-0.7,1,287.0,978.0,1.0,195.0,1,0.026058653643553198,0.0
214,214,-0.6000090490523684,-0.6,1,259.0,700.0,1.0,331.0,1,0.25955859177203977,0.0
215,215,0.6694413437157491,0.7,0,473.0,824.0,0.0,163.0,1,0.5613415933237359,0.0
216,216,0.18203775055436755,0.2,0,443.0,849.0,0.0,468.0,1,0.2818156789557399,0.0
217,217,-0.3501489147932124,-0.4,1,282.0,617.0,1.0,331.0,1,0.7218026861961183,0.0
218,218,0.9323436518184187,0.9,0,360.0,609.0,0.0,171.0,1,0.14724636209195396,0.0
219,219,0.00726327646782865,0.0,0,266.0,832.0,0.0,762.0,1,0.04473193954030963,0.0
220,220,-0.6737655316874287,-0.7,1,319.0,996.0,1.0,245.0,1,0.2326351069865119,0.0
221,221,-0.5248869426455061,-0.5,1,413.0,832.0,1.0,285.0,1,0.3402107180799866,0.0
222,222,0.21718667224622967,0.2,0,317.0,777.0,0.0,366.0,1,0.3141002573813785,0.0
223,223,0.9607874730235213,1.0,0,431.0,945.0,0.0,254.0,1,0.5029243487489797,0.0
224,224,-0.1277973567039663,-0.1,1,421.0,605.0,1.0,714.0,1,0.028823498803978498,0.0
225,225,0.5851102480369144,0.6,0,391.0,673.0,0.0,246.0,1,0.2590070740583703,0.0
226,226,0.6853221554426199,0.7,0,396.0,511.0,0.0,253.0,1,0.0378970284158926,0.0
227,227,0.8932998144928179,0.9,0,370.0,700.0,0.0,340.0,1,0.08553435178501756,0.0
228,228,-0.786675556312058,-0.8,1,450.0,659.0,1.0,211.0,1,0.6336921198562767,0.0
229,229,-0.7412734579196374,-0.7,1,393.0,564.0,1.0,263.0,1,0.40378177072965493,0.0
230,230,0.9730092861448794,1.0,0,321.0,604.0,0.0,345.0,1,0.9235417105551245,0.0
231,231,0.8532448488489248,0.9,0,379.0,614.0,0.0,187.0,1,0.3013431788038352,0.0
232,232,0.07208963359937726,0.1,0,273.0,879.0,1.0,638.0,0,0.5529105615273705,0.0
233,233,0.8231598828769677,0.8,0,462.0,762.0,0.0,206.0,1,0.4618416090801152,0.0
234,234,0.2608573311037654,0.3,0,347.0,736.0,0.0,897.0,1,0.02023212785345352,0.0
235,235,-0.8816984868957054,-0.9,1,397.0,518.0,1.0,585.0,1,0.0991799743511178,0.0
236,236,0.4023653997117156,0.4,0,452.0,877.0,0.0,391.0,1,0.8419806324791345,0.0
237,237,0.39827763168270214,0.4,0,345.0,991.0,0.0,304.0,1,0.542290981839043,0.0
238,238,-0.7255740699403921,-0.7,1,363.0,630.0,1.0,307.0,1,0.27728734458345006,0.0
239,239,0.48140497653573777,0.5,0,377.0,833.0,0.0,150.0,1,0.839463202499776,0.0
240,240,-0.8504357352438758,-0.9,1,476.0,588.0,1.0,296.0,1,0.08438274017650516,0.0
241,241,0.6263896985876027,0.6,0,263.0,523.0,0.0,164.0,1,0.6789139710551261,0.0
242,242,-0.7573482412064689,-0.8,1,418.0,998.0,1.0,304.0,1,0.5445973516306057,0.0
243,243,0.7417681035222126,0.7,0,311.0,809.0,0.0,210.0,1,0.23703010238245903,0.0
244,244,-0.7187914479098094,-0.7,1,441.0,759.0,1.0,170.0,1,0.5199309754642542,0.0
245,245,-0.37938673961784297,-0.4,1,466.0,822.0,1.0,402.0,1,0.1381855720326869,0.0
246,246,0.6666748190676097,0.7,0,350.0,689.0,0.0,381.0,1,0.09434555564616953,0.0
247,247,0.22119823186837362,0.2,0,309.0,864.0,0.0,367.0,1,0.4664778313947181,0.0
248,248,0.5267407999228975,0.5,0,474.0,897.0,0.0,229.0,1,0.962218645557079,0.0
249,249,-0.40045947983511865,-0.4,1,352.0,573.0,1.0,215.0,1,0.6775872733409833,0.0
250,250,0.6204204090703709,0.6,0,442.0,908.0,0.0,230.0,1,0.9831055606477819,0.0
251,251,-0.3113141006144964,-0.3,1,490.0,991.0,1.0,209.0,1,0.9147027111187058,0.0
252,252,0.4860966607480457,0.5,0,386.0,752.0,0.0,262.0,1,0.7646308642236359,0.0
253,253,-0.2481826938184617,-0.2,1,424.0,730.0,1.0,256.0,1,0.01525774698888005,0.0
254,254,0.23393989460677211,0.2,0,378.0,838.0,0.0,384.0,1,0.9894166052904296,0.0
255,255,-0.24367760837636543,-0.2,1,450.0,787.0,1.0,663.0,1,0.8953005392510359,0.0
256,256,0.0036047989985559248,0.0,0,476.0,675.0,0.0,1029.0,1,0.10955847921727324,0.0
257,257,-0.3700379020495046,-0.4,1,264.0,570.0,1.0,436.0,1,0.990932060154084,0.0
258,258,-0.7771828307248188,-0.8,1,465.0,682.0,1.0,193.0,1,0.5818027721451065,0.0
259,259,-0.26090782930201906,-0.3,1,435.0,747.0,1.0,168.0,1,0.7425044118623612,0.0
260,260,-0.2487639492143212,-0.2,1,342.0,886.0,1.0,502.0,1,0.2843455834429457,0.0
261,261,-0.026428155675804366,-0.0,1,365.0,598.0,1.0,647.0,1,0.5683919998368991,0.0
262,262,-0.19430750616878,-0.2,1,337.0,930.0,1.0,743.0,1,0.22994673496755647,0.0
263,263,-0.7796073954295455,-0.8,1,443.0,855.0,1.0,182.0,1,0.13408879123990347,0.0
264,264,0.09018202157860822,0.1,0,317.0,794.0,1.0,519.0,0,0.042701027180255924,0.0
265,265,-0.43225422146478887,-0.4,1,458.0,640.0,1.0,292.0,1,0.7177671006470503,0.0
266,266,-0.6998972169475193,-0.7,1,305.0,573.0,1.0,282.0,1,0.07403011260423908,0.0
267,267,0.4218744384223143,0.4,0,259.0,669.0,0.0,382.0,1,0.890728923288372,0.0
268,268,-0.07118586183607145,-0.1,1,293.0,982.0,1.0,925.0,1,0.9700875970181507,0.0
269,269,-0.13959427101078759,-0.1,1,371.0,656.0,0.0,543.0,0,0.7094228566246954,0.0
270,270,-0.3949415516289174,-0.4,1,455.0,580.0,1.0,485.0,1,0.11134351874348536,0.0
271,271,-0.7347945236800462,-0.7,1,284.0,652.0,1.0,184.0,1,0.8820247860984515,0.0
272,272,0.2138734401551876,0.2,0,466.0,937.0,0.0,397.0,1,0.6810048539187873,0.0
273,273,-0.276780803300378,-0.3,1,289.0,881.0,1.0,280.0,1,0.4721776392679734,0.0
274,274,-0.12151008999115431,-0.1,1,416.0,575.0,1.0,399.0,1,0.339979649098315,0.0
275,275,0.8178019564260912,0.8,0,395.0,953.0,0.0,232.0,1,0.24436521641059572,0.0
276,276,-0.8488767435167688,-0.8,1,465.0,777.0,1.0,208.0,1,0.5042210167608684,0.0
277,277,-0.29190949567339985,-0.3,1,376.0,600.0,1.0,324.0,1,0.12409395503389886,0.0
278,278,0.5299326650172633,0.5,0,365.0,533.0,0.0,282.0,1,0.29905569821993616,0.0
279,279,0.2725117363053542,0.3,0,401.0,889.0,0.0,560.0,1,0.7040536292281769,0.0
280,280,-0.6196518358792424,-0.6,1,346.0,640.0,1.0,454.0,1,0.25383688617229394,0.0
281,281,-0.7300239096648482,-0.7,1,401.0,581.0,1.0,288.0,1,0.5952663824045873,0.0
282,282,0.13669788959357665,0.1,0,295.0,763.0,0.0,282.0,1,0.9835853992881148,0.0
283,283,-0.2997855284584776,-0.3,1,267.0,531.0,1.0,1042.0,1,0.9474970278710332,0.0
284,284,0.12138529284993527,0.1,0,337.0,828.0,0.0,1275.0,1,0.3753770435610012,0.0
285,285,-0.7882490129716802,-0.8,1,368.0,708.0,1.0,284.0,1,0.03611785547876212,0.0
286,286,-0.13030672935934406,-0.1,1,453.0,500.0,1.0,327.0,1,0.7810582368489606,0.0
287,287,0.8350539957864485,0.8,0,438.0,717.0,0.0,225.0,1,0.24706582178434433,0.0
288,288,0.32284091163549,0.3,0,293.0,556.0,0.0,481.0,1,0.4631043723920495,0.0
289,289,-0.2462528404960187,-0.2,1,271.0,902.0,1.0,407.0,1,0.4872950596792691,0.0
290,290,-0.5227918566704814,-0.5,1,361.0,674.0,1.0,265.0,1,0.8159053770351459,0.0
291,291,0.43245643811502643,0.4,0,317.0,883.0,0.0,340.0,1,0.643951343553223,0.0
292,292,0.16177963154975195,0.2,0,365.0,889.0,0.0,516.0,1,0.16745805726664043,0.0
293,293,-0.31510504961842223,-0.3,1,265.0,754.0,1.0,351.0,1,0.9970680325941702,0.0
294,294,0.9241002681401609,0.9,0,353.0,754.0,0.0,83.0,1,0.8682120583648825,0.0
295,295,-0.5934627758556477,-0.6,1,491.0,919.0,1.0,870.0,1,0.19114525313058695,0.0
296,296,0.8184935753546265,0.8,0,479.0,654.0,0.0,487.0,1,0.12128283151925878,0.0
297,297,0.022167901283366875,0.0,0,365.0,695.0,0.0,330.0,1,0.3813666524863658,0.0
298,298,0.5774096390577421,0.6,0,411.0,693.0,0.0,286.0,1,0.9036482370794207,0.0
299,299,0.8105909692390767,0.8,0,451.0,776.0,0.0,153.0,1,0.6121630030256928,0.0
300,300,-0.5892361356749629,-0.6,1,280.0,765.0,1.0,215.0,1,0.4152183941066333,0.0
301,301,-0.32793984674144383,-0.3,1,267.0,748.0,1.0,275.0,1,0.7650175507171082,0.0
302,302,-0.15293174273745436,-0.2,1,265.0,657.0,1.0,268.0,1,0.9706049806805288,0.0
303,303,0.3050852490291125,0.3,0,306.0,939.0,0.0,265.0,1,0.6283699194172594,0.0
304,304,0.7400049323351126,0.7,0,308.0,759.0,0.0,233.0,1,0.0013486893306208225,0.0
305,305,0.014086150506114503,0.0,0,370.0,561.0,0.0,1749.0,1,0.6261712952867544,0.0
306,306,0.8345298166748567,0.8,0,419.0,731.0,0.0,150.0,1,0.7952022230282155,0.0
307,307,0.2246515446126951,0.2,0,358.0,995.0,0.0,427.0,1,0.0015726008924736856,0.0
308,308,-0.26677199477192914,-0.3,1,251.0,935.0,1.0,424.0,1,0.6182560429481382,0.0
309,309,-0.5422549176167781,-0.5,1,407.0,973.0,1.0,300.0,1,0.6185687668097735,0.0
310,310,-0.955413171767505,-1.0,1,251.0,526.0,1.0,233.0,1,0.5766005016328715,0.0
311,311,-0.3961076713638987,-0.4,1,476.0,638.0,1.0,316.0,1,0.7532415505284245,0.0
312,312,-0.8625787276612193,-0.9,1,482.0,909.0,1.0,159.0,1,0.7385333717287382,0.0
313,313,0.8691236731101104,0.9,0,449.0,967.0,0.0,294.0,1,0.29353638769298795,0.0
314,314,-0.06388576924883371,-0.1,1,456.0,639.0,1.0,885.0,1,0.2986021074625611,0.0
315,315,0.7886226709047472,0.8,0,314.0,826.0,0.0,200.0,1,0.2765900593661671,0.0
316,316,-0.795848125776085,-0.8,1,496.0,874.0,1.0,400.0,1,0.0025749090300682953,0.0
317,317,-0.6268829908533358,-0.6,1,299.0,653.0,1.0,368.0,1,0.8861472374224811,0.0
318,318,-0.6350808137422033,-0.6,1,319.0,711.0,1.0,250.0,1,0.27767220247490176,0.0
319,319,0.6491336906833309,0.6,0,442.0,959.0,0.0,209.0,1,0.17701137370951803,0.0
320,320,0.8642393975276219,0.9,0,477.0,666.0,0.0,247.0,1,0.001249354202641717,0.0
321,321,0.26729856352991344,0.3,0,410.0,958.0,0.0,932.0,1,0.1619396671674822,0.0
322,322,-0.05346842031760968,-0.1,1,250.0,604.0,1.0,926.0,1,0.15955835257795015,0.0
323,323,-0.9521901692599568,-1.0,1,458.0,645.0,1.0,227.0,1,0.022274096080319827,0.0
324,324,0.8240797685589163,0.8,0,382.0,769.0,0.0,189.0,1,0.9642320216213952,0.0
325,325,-0.335820146654086,-0.3,1,456.0,542.0,1.0,302.0,1,0.1493077830376316,0.0
326,326,0.4112363222522055,0.4,0,480.0,652.0,0.0,398.0,1,0.9258118890529444,0.0
327,327,0.34711533748298096,0.3,0,324.0,950.0,0.0,396.0,1,0.9740676360899525,0.0
328,328,-0.8362098086034222,-0.8,1,275.0,678.0,1.0,197.0,1,0.6241128362560964,0.0
329,329,-0.49039062384308374,-0.5,1,252.0,746.0,1.0,252.0,1,0.9010597970135411,0.0
330,330,0.8665731866838815,0.9,0,324.0,534.0,0.0,252.0,1,0.703868795219289,0.0
331,331,0.9405397430728661,0.9,0,345.0,896.0,0.0,259.0,1,0.6023484682939337,0.0
332,332,0.9426570538599897,0.9,0,422.0,939.0,0.0,219.0,1,0.5096837578824548,0.0
333,333,-0.419013701424221,-0.4,1,439.0,697.0,1.0,444.0,1,0.18947020560995842,0.0
334,334,-0.5182616515618597,-0.5,1,252.0,625.0,1.0,623.0,1,0.37629426731135274,0.0
335,335,0.015996414675374382,0.0,0,282.0,775.0,0.0,1193.0,1,0.4958129144864325,0.0
336,336,0.8303135272590327,0.8,0,347.0,584.0,0.0,179.0,1,0.9153937442168258,0.0
337,337,-0.7400019217673228,-0.7,1,284.0,793.0,1.0,233.0,1,0.630509825495361,0.0
338,338,0.2531420731327947,0.3,0,341.0,981.0,0.0,198.0,1,0.9532244202362834,0.0
339,339,0.5797934002073335,0.6,0,477.0,614.0,0.0,219.0,1,0.30081153950365314,0.0
340,340,-0.7585684632013823,-0.8,1,284.0,829.0,1.0,417.0,1,0.04767734601599449,0.0
341,341,0.623361798166693,0.6,0,269.0,809.0,0.0,222.0,1,0.47025842833979703,0.0
342,342,-0.2553445449065306,-0.3,1,337.0,725.0,1.0,488.0,1,0.017081939491006448,0.0
343,343,0.6376664923939419,0.6,0,377.0,898.0,0.0,275.0,1,0.5817863649320715,0.0
344,344,0.9063611273328414,0.9,0,481.0,960.0,0.0,189.0,1,0.41859885767980876,0.0
345,345,-0.5709206305873678,-0.6,1,472.0,564.0,1.0,164.0,1,0.639058272462597,0.0
346,346,0.5246967827830564,0.5,0,438.0,628.0,0.0,344.0,1,0.10436682008669507,0.0
347,347,0.43069628444317876,0.4,0,450.0,508.0,0.0,152.0,1,0.6146945826417444,0.0
348,348,0.588035951172067,0.6,0,380.0,536.0,0.0,304.0,1,0.2370681325532803,0.0
349,349,-0.6851800087818689,-0.7,1,372.0,962.0,1.0,206.0,1,0.8544095329132361,0.0
350,350,-0.9165263002801587,-0.9,1,337.0,732.0,1.0,181.0,1,0.8435845923449852,0.0
351,351,0.7297933578664002,0.7,0,364.0,538.0,0.0,248.0,1,0.35018123281616254,0.0
352,352,0.5490403482538577,0.5,0,273.0,956.0,0.0,301.0,1,0.35168296851472336,0.0
353,353,-0.3298895396283781,-0.3,1,460.0,532.0,1.0,328.0,1,0.1671281187427065,0.0
354,354,-0.09270345330219087,-0.1,1,469.0,811.0,1.0,590.0,1,0.7999886206773656,0.0
355,355,-0.5314769688575003,-0.5,1,340.0,919.0,1.0,511.0,1,0.5089768111092999,0.0
356,356,-0.513413551943074,-0.5,1,404.0,822.0,1.0,444.0,1,0.09860666628300085,0.0
357,357,-0.7670232031317541,-0.8,1,354.0,965.0,1.0,171.0,1,0.7875009607124405,0.0
358,358,-0.7926012098862558,-0.8,1,416.0,805.0,1.0,289.0,1,0.846470921831763,0.0
359,359,-0.2149266451914682,-0.2,1,256.0,603.0,1.0,441.0,1,0.191986512251765,0.0
360,360,-0.8708139554575243,-0.9,1,481.0,529.0,1.0,200.0,1,0.046775380688526824,0.0
361,361,0.09809461433421274,0.1,0,434.0,571.0,0.0,545.0,1,0.4245052192595711,0.0
362,362,0.37279400856390366,0.4,0,391.0,670.0,0.0,359.0,1,0.12842923997233124,0.0
363,363,0.055621359344241394,0.1,0,435.0,853.0,0.0,1472.0,1,0.6258632490357547,0.0
364,364,0.14547097004531007,0.1,0,289.0,605.0,0.0,556.0,1,0.5286079092020718,0.0
365,365,-0.452254610889643,-0.5,1,468.0,983.0,1.0,289.0,1,0.767984693272967,0.0
366,366,0.07627044716636067,0.1,0,374.0,895.0,0.0,351.0,1,0.43462174295101175,0.0
367,367,0.35826438028604235,0.4,0,424.0,983.0,0.0,393.0,1,0.7566495255389758,0.0
368,368,-0.17850211521103798,-0.2,1,363.0,794.0,1.0,293.0,1,0.3231081983726165,0.0
369,369,0.42460017539008366,0.4,0,306.0,543.0,0.0,561.0,1,0.0282896975616439,0.0
370,370,-0.42096987888482995,-0.4,1,330.0,968.0,1.0,302.0,1,0.822496849158964,0.0
371,371,0.02220336388448363,0.0,0,285.0,886.0,0.0,379.0,1,0.5430579908951411,0.0
372,372,-0.7263547029423427,-0.7,1,485.0,649.0,1.0,516.0,1,0.656457113952641,0.0
373,373,0.9284665306534314,0.9,0,278.0,992.0,0.0,200.0,1,0.935569833611313,0.0
374,374,0.4755049908886966,0.5,0,382.0,527.0,0.0,331.0,1,0.49189011410969585,0.0
375,375,-0.0025576539603344717,-0.0,1,460.0,767.0,0.0,883.0,0,0.7667444081196644,0.0
376,376,0.20973142143735712,0.2,0,255.0,653.0,0.0,1972.0,1,0.10829036483238108,0.0
377,377,0.9029899505957131,0.9,0,397.0,534.0,0.0,199.0,1,0.5057621606387128,0.0
378,378,-0.31998130053943563,-0.3,1,320.0,830.0,1.0,490.0,1,0.33930433968635243,0.0
379,379,-0.6333137250371865,-0.6,1,443.0,564.0,1.0,283.0,1,0.21914725091785137,0.0
380,380,0.7520206109975491,0.8,0,496.0,967.0,0.0,277.0,1,0.5162298355273989,0.0
381,381,0.4540935032563225,0.5,0,346.0,783.0,0.0,311.0,1,0.9776605824618814,0.0
382,382,0.5049309297627573,0.5,0,401.0,764.0,0.0,255.0,1,0.7542065389394406,0.0
383,383,0.793066596944328,0.8,0,343.0,855.0,0.0,272.0,1,0.28774948527489297,0.0
384,384,0.6593844925210315,0.7,0,364.0,823.0,0.0,253.0,1,0.8757841961242432,0.0
385,385,-0.9543403438873692,-1.0,1,412.0,527.0,1.0,321.0,1,0.07745213162071973,0.0
386,386,0.352970260260727,0.4,0,465.0,947.0,0.0,248.0,1,0.8894404665533139,0.0
387,387,-0.8047481539167001,-0.8,1,287.0,779.0,1.0,114.0,1,0.28180457078116417,0.0
388,388,-0.4445835280551007,-0.4,1,460.0,614.0,1.0,636.0,1,0.6991767598066557,0.0
389,389,0.7665225319973077,0.8,0,431.0,762.0,0.0,267.0,1,0.8317907282482302,0.0
390,390,-0.5806366382689003,-0.6,1,411.0,616.0,1.0,333.0,1,0.8285327079631587,0.0
391,391,0.978286370206179,1.0,0,325.0,582.0,0.0,173.0,1,0.7295066177449789,0.0
392,392,0.9212572142464612,0.9,0,394.0,987.0,0.0,349.0,1,0.11161403470548603,0.0
393,393,0.6038448447561278,0.6,0,317.0,727.0,0.0,276.0,1,0.5337225155752683,0.0
394,394,-0.5033331048688681,-0.5,1,303.0,935.0,1.0,202.0,1,0.30775024305058174,0.0
395,395,0.9792123602470708,1.0,0,424.0,878.0,0.0,138.0,1,0.7199485467720689,0.0
396,396,0.21631934400201103,0.2,0,312.0,966.0,0.0,452.0,1,0.10104786454515668,0.0
397,397,0.39628197952248945,0.4,0,346.0,996.0,0.0,398.0,1,0.5563295393854469,0.0
398,398,0.2549372346769665,0.3,0,268.0,971.0,0.0,911.0,1,0.5472554426719886,0.0
399,399,0.7221970115755978,0.7,0,309.0,938.0,0.0,293.0,1,0.3613932285464717,0.0
400,400,0.6338896198941228,0.6,0,491.0,652.0,0.0,227.0,1,0.7573771632943325,0.0
401,401,0.2863371085009101,0.3,0,426.0,587.0,0.0,557.0,1,0.018157094925292938,0.0
402,402,-0.7840569525773786,-0.8,1,466.0,879.0,1.0,365.0,1,0.099987755361857,0.0
403,403,0.7933316439107916,0.8,0,254.0,883.0,0.0,173.0,1,0.6918256109089939,0.0
404,404,-0.1829350536434824,-0.2,1,455.0,776.0,1.0,249.0,1,0.3580312693157158,0.0
405,405,-0.6347561338164116,-0.6,1,300.0,813.0,1.0,237.0,1,0.5151522985972082,0.0
406,406,0.7914517944115622,0.8,0,329.0,538.0,0.0,203.0,1,0.9577727143510607,0.0
407,407,0.8529089058819883,0.9,0,394.0,500.0,0.0,246.0,1,0.9320327614168167,0.0
408,408,-0.4525231471492246,-0.5,1,384.0,610.0,1.0,286.0,1,0.5635466562284754,0.0
409,409,0.31962816775894876,0.3,0,496.0,954.0,0.0,1190.0,1,0.8937704519457138,0.0
410,410,-0.06095332930720754,-0.1,1,332.0,671.0,0.0,1597.0,0,0.46011800828845173,0.0
411,411,-0.21261771123676843,-0.2,1,339.0,702.0,1.0,769.0,1,0.13788848120255393,0.0
412,412,0.16018179289993162,0.2,0,439.0,742.0,0.0,609.0,1,0.47091261751392943,0.0
413,413,0.8719671716784496,0.9,0,490.0,581.0,0.0,239.0,1,0.8196230967317528,0.0
414,414,0.14328987494739587,0.1,0,449.0,801.0,0.0,430.0,1,0.5422643215476317,0.0
415,415,0.9568742833510742,1.0,0,270.0,929.0,0.0,381.0,1,0.5069518152715458,0.0
416,416,0.1512788596198753,0.2,0,317.0,631.0,0.0,602.0,1,0.14295075979074845,0.0
417,417,-0.9152489654559499,-0.9,1,264.0,952.0,1.0,184.0,1,0.9932444635579475,0.0
418,418,-0.5844476246140169,-0.6,1,314.0,909.0,1.0,337.0,1,0.1050023056640752,0.0
419,419,0.7049062454244917,0.7,0,450.0,644.0,0.0,176.0,1,0.4283438892102045,0.0
420,420,-0.2610960839483025,-0.3,1,347.0,991.0,1.0,712.0,1,0.2747471085706731,0.0
421,421,0.35093415424315944,0.4,0,304.0,825.0,0.0,311.0,1,0.7765026977237519,0.0
422,422,-0.9306151358429986,-0.9,1,310.0,875.0,1.0,215.0,1,0.5063697665285009,0.0
423,423,-0.7935222878647286,-0.8,1,345.0,708.0,1.0,167.0,1,0.5877494895486329,0.0
424,424,0.48702149777900905,0.5,0,430.0,682.0,0.0,238.0,1,0.36133348433188384,0.0
425,425,-0.9965463600789499,-1.0,1,318.0,900.0,1.0,242.0,1,0.2588055502638037,0.0
426,426,0.029514858268059996,0.0,0,425.0,892.0,0.0,753.0,1,0.9921109704516075,0.0
427,427,0.22136489962325379,0.2,0,402.0,663.0,0.0,695.0,1,0.6972513971803763,0.0
428,428,-0.32682918898118274,-0.3,1,375.0,597.0,1.0,468.0,1,0.1857124692598494,0.0
429,429,-0.9347336974315996,-0.9,1,492.0,526.0,1.0,252.0,1,0.047384923671199286,0.0
430,430,-0.4980087454463449,-0.5,1,345.0,802.0,1.0,253.0,1,0.8668598003726217,0.0
431,431,0.3117117766667523,0.3,0,292.0,754.0,0.0,254.0,1,0.6932199983752964,0.0
432,432,0.48386787144315835,0.5,0,369.0,587.0,0.0,284.0,1,0.2767757949475419,0.0
433,433,-0.6044280319943078,-0.6,1,468.0,704.0,1.0,228.0,1,0.6877080837473636,0.0
434,434,-0.5367627092931275,-0.5,1,443.0,757.0,1.0,330.0,1,0.11898232261296449,0.0
435,435,0.9084768323720984,0.9,0,269.0,627.0,0.0,194.0,1,0.23855588113586756,0.0
436,436,0.2787384939620947,0.3,0,331.0,882.0,0.0,377.0,1,0.14247518137814452,0.0
437,437,-0.30325861926270936,-0.3,1,447.0,882.0,1.0,161.0,1,0.48383861653978566,0.0
438,438,-0.13557652464001535,-0.1,1,399.0,702.0,1.0,1409.0,1,0.9302543602578389,0.0
439,439,-0.019991400229897316,-0.0,1,477.0,933.0,1.0,210.0,1,0.18599081163797693,0.0
440,440,-0.8420518384786673,-0.8,1,434.0,502.0,1.0,304.0,1,0.9216966099619713,0.0
441,441,-0.7100266705704925,-0.7,1,378.0,734.0,1.0,338.0,1,0.25914766782243215,0.0
442,442,-0.5114087875135431,-0.5,1,299.0,796.0,1.0,245.0,1,0.41819145273667624,0.0
443,443,0.588918272934934,0.6,0,482.0,619.0,0.0,149.0,1,0.8714658534072223,0.0
444,444,0.1942484521480461,0.2,0,497.0,929.0,0.0,354.0,1,0.36606213975677604,0.0
445,445,-0.048666930281318965,-0.0,1,357.0,845.0,1.0,298.0,1,0.39651927527748565,0.0
446,446,0.4129523522684031,0.4,0,378.0,763.0,0.0,509.0,1,0.4551507861220444,0.0
447,447,0.3996414185971877,0.4,0,407.0,733.0,0.0,490.0,1,0.021058481594151135,0.0
448,448,-0.8862416487811939,-0.9,1,324.0,535.0,1.0,241.0,1,0.17698474827507715,0.0
449,449,0.09326662520950357,0.1,0,412.0,939.0,0.0,659.0,1,0.13024632000746617,0.0
450,450,0.3129360376950663,0.3,0,393.0,593.0,0.0,344.0,1,0.915691464735769,0.0
451,451,0.994095427461702,1.0,0,321.0,848.0,0.0,321.0,1,0.7098786998819333,0.0
452,452,-0.05439428289168258,-0.1,1,398.0,810.0,1.0,912.0,1,0.5349935745734662,0.0
453,453,-0.5175949761269061,-0.5,1,300.0,993.0,1.0,357.0,1,0.9346940249235232,0.0
454,454,0.7315255250992236,0.7,0,364.0,907.0,0.0,309.0,1,0.8761013889008269,0.0
455,455,0.5301967620373893,0.5,0,443.0,589.0,0.0,378.0,1,0.4490689947648433,0.0
456,456,0.09316468478027495,0.1,0,374.0,750.0,0.0,506.0,1,0.1923705064155723,0.0
457,457,0.8498570046343847,0.8,0,402.0,685.0,0.0,323.0,1,0.02065167876931384,0.0
458,458,-0.9721961715938576,-1.0,1,399.0,962.0,1.0,229.0,1,0.2501057597928946,0.0
459,459,-0.6493712799611087,-0.6,1,371.0,589.0,1.0,240.0,1,0.6738590669345881,0.0
460,460,-0.18846645365034953,-0.2,1,482.0,593.0,1.0,1345.0,1,0.17729745845263867,0.0
461,461,-0.9738343137642753,-1.0,1,273.0,752.0,1.0,205.0,1,0.39925291088678383,0.0
462,462,-0.9405428663425768,-0.9,1,467.0,688.0,1.0,215.0,1,0.117856327812355,0.0
463,463,-0.4392459162008939,-0.4,1,279.0,733.0,1.0,258.0,1,0.3107316889133339,0.0
464,464,-0.07115555582596467,-0.1,1,330.0,590.0,1.0,280.0,1,0.2886567135991607,0.0
465,465,-0.40031799984185534,-0.4,1,376.0,941.0,1.0,283.0,1,0.7434092389463127,0.0
466,466,-0.44422250740954095,-0.4,1,463.0,876.0,1.0,221.0,1,0.4795709920702036,0.0
467,467,0.4960498347411433,0.5,0,463.0,943.0,0.0,424.0,1,0.36838190533194315,0.0
468,468,-0.09322372637829712,-0.1,1,359.0,921.0,1.0,790.0,1,0.5851770137093257,0.0
469,469,0.4640677591825775,0.5,0,496.0,637.0,0.0,147.0,1,0.770801331137688,0.0
470,470,0.35720828304479046,0.4,0,255.0,525.0,0.0,440.0,1,0.7781181838849458,0.0
471,471,0.07333417769000117,0.1,0,482.0,826.0,0.0,922.0,1,0.3520500400650195,0.0
472,472,-0.02134533909621017,-0.0,1,445.0,761.0,1.0,344.0,1,0.7687500380702377,0.0
473,473,0.13714764858391204,0.1,0,268.0,504.0,0.0,408.0,1,0.01301967315537833,0.0
474,474,0.03181514702271815,0.0,0,283.0,749.0,0.0,858.0,1,0.34354201598427014,0.0
475,475,0.8203639433201635,0.8,0,460.0,725.0,0.0,155.0,1,0.9872390625268157,0.0
476,476,0.11719864138914438,0.1,0,250.0,574.0,0.0,196.0,1,0.35457968634504344,0.0
477,477,-0.37485296877063945,-0.4,1,361.0,702.0,1.0,377.0,1,0.6614596609303192,0.0
478,478,-0.6921720234942852,-0.7,1,378.0,979.0,1.0,313.0,1,0.39316111415781696,0.0
479,479,0.9747538333009897,1.0,0,464.0,730.0,0.0,266.0,1,0.24035772675266043,0.0
480,480,-0.3744954044601596,-0.4,1,289.0,839.0,1.0,1032.0,1,0.6438639300199593,0.0
481,481,-0.13083711889810057,-0.1,1,311.0,563.0,1.0,2416.0,1,0.18794853498658126,0.0
482,482,-0.33994419906761575,-0.3,1,362.0,775.0,1.0,1133.0,1,0.7905599329844871,0.0
483,483,0.6355706832199459,0.6,0,463.0,813.0,0.0,154.0,1,0.6813788403603092,0.0
484,484,-0.3116851271381096,-0.3,1,370.0,886.0,1.0,374.0,1,0.8354803251633257,0.0
485,485,-0.6220573638623581,-0.6,1,415.0,922.0,1.0,153.0,1,0.05541514030295813,0.0
486,486,0.882226879798161,0.9,0,308.0,624.0,0.0,198.0,1,0.6524063781635835,0.0
487,487,0.5906706277887233,0.6,0,268.0,780.0,0.0,452.0,1,0.9523160873851431,0.0
488,488,-0.008950446008166635,-0.0,1,474.0,788.0,0.0,2088.0,0,0.12543485793168452,0.0
489,489,0.20877549963992315,0.2,0,473.0,546.0,0.0,241.0,1,0.9441596009445621,0.0
490,490,0.6513484551817146,0.7,0,458.0,524.0,0.0,288.0,1,0.3440354348475463,0.0
491,491,-0.5608099437842586,-0.6,1,356.0,559.0,1.0,315.0,1,0.1554410383812781,0.0
492,492,0.8854802111860489,0.9,0,436.0,760.0,0.0,204.0,1,0.07146985003288664,0.0
493,493,0.05146666431565694,0.1,0,422.0,941.0,1.0,507.0,0,0.0005550778770807563,0.0
494,494,0.6986328502338093,0.7,0,413.0,659.0,0.0,268.0,1,0.06818630225113553,0.0
495,495,0.9050982562598313,0.9,0,407.0,858.0,0.0,245.0,1,0.7924555094374143,0.0
496,496,-0.16843515287238198,-0.2,1,392.0,899.0,1.0,489.0,1,0.3009517857725553,0.0
497,497,-0.11005570942361165,-0.1,1,357.0,990.0,1.0,263.0,1,0.5226467497883527,0.0
498,498,-0.8389132439048521,-0.8,1,445.0,934.0,1.0,201.0,1,0.9048299617012653,0.0
499,499,-0.23753319994989197,-0.2,1,284.0,528.0,1.0,978.0,1,0.8352236492009126,0.0
500,500,-0.7982739900667866,-0.8,1,255.0,762.0,1.0,333.0,1,0.5995936780184983,0.0
501,501,-0.07770566981318239,-0.1,1,275.0,877.0,1.0,248.0,1,0.8709348829730458,0.0
502,502,-0.7835964142579159,-0.8,1,418.0,579.0,1.0,353.0,1,0.2615218408240536,0.0
503,503,0.7938578570427184,0.8,0,460.0,984.0,0.0,126.0,1,0.6207291654331312,0.0
504,504,0.15551996704145865,0.2,0,341.0,980.0,0.0,319.0,1,0.0737511861994955,0.0
505,505,0.563274612709318,0.6,0,315.0,658.0,0.0,327.0,1,0.1934032925029071,0.0
506,506,-0.5928235118638292,-0.6,1,487.0,855.0,1.0,238.0,1,0.5529764943218034,0.0
507,507,-0.13286763597281404,-0.1,1,443.0,528.0,0.0,979.0,0,0.9423808914924761,0.0
508,508,-0.5685602278656223,-0.6,1,333.0,505.0,1.0,322.0,1,0.765682771256971,0.0
509,509,0.04928674970989633,0.0,0,455.0,616.0,0.0,3179.0,1,0.020456379791535362,0.0
510,510,0.316223126344505,0.3,0,431.0,682.0,0.0,267.0,1,0.7939555752551654,0.0
511,511,-0.17415316026403138,-0.2,1,321.0,979.0,1.0,610.0,1,0.19308278754255626,0.0
512,512,-0.06928007844913031,-0.1,1,404.0,800.0,0.0,646.0,0,0.7269555536777127,0.0
513,513,0.42676113604720145,0.4,0,308.0,842.0,0.0,340.0,1,0.15731896564116354,0.0
514,514,0.6167122752090799,0.6,0,322.0,725.0,0.0,263.0,1,0.642419763344467,0.0
515,515,-0.6324236989044896,-0.6,1,321.0,651.0,1.0,178.0,1,0.9561665512861163,0.0
516,516,0.3596866521084332,0.4,0,349.0,625.0,0.0,176.0,1,0.9094122333918085,0.0
517,517,0.942810844755817,0.9,0,492.0,684.0,0.0,214.0,1,0.7626185991038485,0.0
518,518,-0.78886316113511,-0.8,1,285.0,571.0,1.0,674.0,1,0.891466013549574,0.0
519,519,-0.2749039681445493,-0.3,1,260.0,506.0,1.0,254.0,1,0.5880127078272868,0.0
520,520,-0.894863877476586,-0.9,1,487.0,741.0,1.0,242.0,1,0.21576252505931304,0.0
521,521,-0.046887590647262556,-0.0,1,446.0,672.0,1.0,392.0,1,0.16678363597878942,0.0
522,522,-0.4120094420108731,-0.4,1,256.0,891.0,1.0,403.0,1,0.6732335337378291,0.0
523,523,0.3851599156474468,0.4,0,471.0,544.0,0.0,655.0,1,0.12831263755076638,0.0
524,524,-0.11766039925590976,-0.1,1,369.0,626.0,1.0,485.0,1,0.9812379920291875,0.0
525,525,-0.08014924093883091,-0.1,1,263.0,588.0,1.0,799.0,1,0.5465264810476753,0.0
526,526,-0.360004463580728,-0.4,1,332.0,947.0,1.0,331.0,1,0.5399456681047896,0.0
527,527,-0.3781347449304262,-0.4,1,484.0,915.0,1.0,421.0,1,0.3451550714086634,0.0
528,528,0.9879296973977898,1.0,0,497.0,793.0,0.0,390.0,1,0.1146153329701729,0.0
529,529,-0.697308159456151,-0.7,1,381.0,504.0,1.0,345.0,1,0.774631165428091,0.0
530,530,0.4479331190089588,0.4,0,411.0,839.0,0.0,340.0,1,0.2575321320459808,0.0
531,531,0.4097483516386482,0.4,0,456.0,844.0,0.0,340.0,1,0.2009951135882977,0.0
532,532,-0.5520130451363257,-0.6,1,271.0,508.0,1.0,281.0,1,0.37126118298328137,0.0
533,533,0.09129962890862342,0.1,0,319.0,790.0,0.0,591.0,1,0.4720435233001302,0.0
534,534,0.7310598301299815,0.7,0,324.0,956.0,0.0,150.0,1,0.6243422304104782,0.0
535,535,-0.9927908108299899,-1.0,1,470.0,534.0,1.0,346.0,1,0.08697675876560351,0.0
536,536,-0.5686794034286344,-0.6,1,347.0,721.0,1.0,232.0,1,0.40463870548326963,0.0
537,537,0.8500538726358939,0.9,0,464.0,689.0,0.0,397.0,1,0.24537136157946582,0.0
538,538,0.9424025959820748,0.9,0,470.0,607.0,0.0,273.0,1,0.9643747768368078,0.0
539,539,-0.7936539721268572,-0.8,1,437.0,914.0,1.0,209.0,1,0.38298939786801744,0.0
540,540,0.8807785455364534,0.9,0,310.0,518.0,0.0,232.0,1,0.39759083887427216,0.0
541,541,0.9173959421674764,0.9,0,318.0,569.0,0.0,223.0,1,0.7226631518900373,0.0
542,542,0.12367408730478724,0.1,0,298.0,926.0,0.0,976.0,1,0.0012212627707447465,0.0
543,543,0.6515356196428677,0.7,0,258.0,876.0,0.0,186.0,1,0.26394493867803615,0.0
544,544,-0.019697560180499396,-0.0,1,255.0,864.0,1.0,551.0,1,0.20074906047301044,0.0
545,545,-0.8841175556867014,-0.9,1,412.0,654.0,1.0,254.0,1,0.5708448785206708,0.0
546,546,0.7512532699194936,0.8,0,476.0,578.0,0.0,246.0,1,0.6439732321335369,0.0
547,547,0.19417569507054688,0.2,0,370.0,545.0,0.0,395.0,1,0.07043133728170503,0.0
548,548,0.47347019318000094,0.5,0,484.0,744.0,0.0,352.0,1,0.36054608380108777,0.0
549,549,-0.09775867614682054,-0.1,1,274.0,666.0,1.0,450.0,1,0.36140587767148324,0.0
550,550,-0.6293589249888243,-0.6,1,382.0,571.0,1.0,367.0,1,0.39453261339297596,0.0
551,551,0.6851549219569399,0.7,0,390.0,713.0,0.0,237.0,1,0.28034615129267204,0.0
552,552,-0.42243484905730844,-0.4,1,441.0,787.0,1.0,472.0,1,0.9212678291734842,0.0
553,553,-0.9905925384020267,-1.0,1,254.0,869.0,1.0,107.0,1,0.31840869083882084,0.0
554,554,0.19868425256695632,0.2,0,297.0,869.0,0.0,344.0,1,0.9757869305073704,0.0
555,555,-0.6578142090178838,-0.7,1,324.0,964.0,1.0,242.0,1,0.9640317861146079,0.0
556,556,0.9274217663358932,0.9,0,325.0,623.0,0.0,272.0,1,0.8286197304814171,0.0
557,557,-0.24122446598827874,-0.2,1,334.0,552.0,1.0,394.0,1,0.12864673418223627,0.0
558,558,0.24121158445308244,0.2,0,488.0,709.0,0.0,473.0,1,0.1874502468971181,0.0
559,559,0.42772353255784057,0.4,0,446.0,575.0,0.0,249.0,1,0.050237636057022916,0.0
560,560,-0.47244801465536157,-0.5,1,355.0,795.0,1.0,360.0,1,0.6221575579960281,0.0
561,561,-0.34325670976988,-0.3,1,251.0,828.0,1.0,301.0,1,0.7346815935763855,0.0
562,562,-0.9162347900566123,-0.9,1,369.0,573.0,1.0,198.0,1,0.6455968720587903,0.0
563,563,0.7081083830871044,0.7,0,451.0,696.0,0.0,213.0,1,0.8918920897244431,0.0
564,564,-0.7816350299824535,-0.8,1,327.0,828.0,1.0,395.0,1,0.3230268492894717,0.0
565,565,-0.8391037074824919,-0.8,1,300.0,959.0,1.0,161.0,1,0.8754022150135107,0.0
566,566,0.42248910954866137,0.4,0,332.0,689.0,0.0,239.0,1,0.8090543577558843,0.0
567,567,-0.33550079259559396,-0.3,1,394.0,785.0,1.0,421.0,1,0.4723379477253733,0.0
568,568,-0.9742160957607104,-1.0,1,446.0,704.0,1.0,150.0,1,0.7282057482330843,0.0
569,569,-0.9824494754067716,-1.0,1,483.0,812.0,1.0,225.0,1,0.9117142565623925,0.0
570,570,-0.7807604458411435,-0.8,1,372.0,802.0,1.0,236.0,1,0.9917318047688725,0.0
571,571,-0.6211247001231226,-0.6,1,487.0,622.0,1.0,201.0,1,0.34813687394276116,0.0
572,572,0.5105839396430498,0.5,0,358.0,513.0,0.0,409.0,1,0.35135340509391044,0.0
573,573,-0.93676891429463,-0.9,1,343.0,748.0,1.0,249.0,1,0.025717741318692977,0.0
574,574,0.1184855336492272,0.1,0,283.0,962.0,0.0,465.0,1,0.5187925858913021,0.0
575,575,0.22195613937230485,0.2,0,278.0,607.0,0.0,295.0,1,0.2919927074728361,0.0
576,576,0.2268565521344419,0.2,0,487.0,593.0,0.0,640.0,1,0.9245090524399577,0.0
577,577,-0.26973504174495044,-0.3,1,278.0,814.0,1.0,548.0,1,0.8383948081300209,0.0
578,578,0.5189437311509557,0.5,0,429.0,922.0,0.0,559.0,1,0.024273063305439435,0.0
579,579,0.4194480907600382,0.4,0,402.0,884.0,0.0,244.0,1,0.41306973598063945,0.0
580,580,-0.9353997696894853,-0.9,1,400.0,955.0,1.0,245.0,1,0.16393798488129563,0.0
581,581,0.044292790622148415,0.0,0,417.0,961.0,0.0,602.0,1,0.00915647249629914,0.0
582,582,0.448783399401373,0.4,0,473.0,750.0,0.0,387.0,1,0.7117532422661459,0.0
583,583,-0.3271762999078669,-0.3,1,444.0,752.0,1.0,144.0,1,0.9638040949176254,0.0
584,584,0.226095272177544,0.2,0,322.0,864.0,0.0,344.0,1,0.3223172572586299,0.0
585,585,-0.017886806715938564,-0.0,1,254.0,887.0,0.0,439.0,0,0.8313286915373074,0.0
586,586,0.027989784074575752,0.0,0,417.0,648.0,0.0,475.0,1,0.37818543660446213,0.0
587,587,-0.40641532500828537,-0.4,1,291.0,944.0,1.0,335.0,1,0.1523003541275776,0.0
588,588,-0.871908754916018,-0.9,1,468.0,926.0,1.0,126.0,1,0.48533580233637175,0.0
589,589,0.8778795898425418,0.9,0,449.0,614.0,0.0,187.0,1,0.4465624614053807,0.0
590,590,0.5954548158917827,0.6,0,319.0,689.0,0.0,182.0,1,0.759029359563118,0.0
591,591,0.7906025229421809,0.8,0,305.0,819.0,0.0,166.0,1,0.6324063243112674,0.0
592,592,0.3487040853563952,0.3,0,397.0,540.0,0.0,273.0,1,0.4450904639712988,0.0
593,593,0.3770616047856643,0.4,0,484.0,722.0,0.0,244.0,1,0.5822076836276344,0.0
594,594,0.48579440878576685,0.5,0,301.0,737.0,0.0,252.0,1,0.9533546877606883,0.0
595,595,0.7750986718090471,0.8,0,308.0,700.0,0.0,202.0,1,0.42086366392967833,0.0
596,596,-0.3741836400944154,-0.4,1,430.0,548.0,1.0,222.0,1,0.44263845809507274,0.0
597,597,-0.9651738847279767,-1.0,1,273.0,740.0,1.0,327.0,1,0.5969038818164483,0.0
598,598,0.9247522690582419,0.9,0,370.0,566.0,0.0,164.0,1,0.530947606311363,0.0
599,599,-0.36710058181037764,-0.4,1,456.0,893.0,1.0,191.0,1,0.34888618322389264,0.0
600,600,-0.7324706016134122,-0.7,1,337.0,602.0,1.0,251.0,1,0.64806067568741,0.0
601,601,0.8306008521535937,0.8,0,400.0,774.0,0.0,156.0,1,0.5909532864144297,0.0
602,602,-0.9406262968391204,-0.9,1,255.0,967.0,1.0,308.0,1,0.04564793214787799,0.0
603,603,0.6708164005943025,0.7,0,366.0,691.0,0.0,143.0,1,0.562582325828194,0.0
604,604,-0.15381375968185607,-0.2,1,460.0,572.0,1.0,568.0,1,0.6514612717501927,0.0
605,605,-0.03206217028921965,-0.0,1,480.0,937.0,0.0,323.0,0,0.3854349190611607,0.0
606,606,0.672406667854504,0.7,0,426.0,553.0,0.0,341.0,1,0.05909500148759239,0.0
607,607,0.8047952846813857,0.8,0,382.0,847.0,0.0,191.0,1,0.35958477413770684,0.0
608,608,-0.09586613118225973,-0.1,1,435.0,638.0,1.0,757.0,1,0.09919782249887643,0.0
609,609,0.9667507872606538,1.0,0,263.0,915.0,0.0,252.0,1,0.7801352353881804,0.0
610,610,0.4509396711113445,0.5,0,371.0,534.0,0.0,275.0,1,0.2678466937201377,0.0
611,611,0.1888062169818263,0.2,0,494.0,640.0,0.0,736.0,1,0.2556324113082793,0.0
612,612,0.14278310639216718,0.1,0,353.0,807.0,0.0,550.0,1,0.7543656494032587,0.0
613,613,0.568608039840883,0.6,0,417.0,517.0,0.0,486.0,1,0.9229959377578845,0.0
614,614,0.9640393173894359,1.0,0,341.0,531.0,0.0,108.0,1,0.21576639077881365,0.0
615,615,0.028790055158391947,0.0,0,303.0,889.0,1.0,568.0,0,0.09320946964472943,0.0
616,616,-0.9720195853522415,-1.0,1,274.0,620.0,1.0,186.0,1,0.5794231205755619,0.0
617,617,0.5855480168455804,0.6,0,389.0,710.0,0.0,261.0,1,0.487646610952467,0.0
618,618,-0.26513056962448345,-0.3,1,292.0,517.0,1.0,491.0,1,0.8844447232588024,0.0
619,619,0.3391558726955137,0.3,0,407.0,524.0,0.0,369.0,1,0.8177886476776627,0.0
620,620,-0.8087750940728133,-0.8,1,355.0,931.0,1.0,354.0,1,0.12813890143978945,0.0
621,621,-0.8614669473359005,-0.9,1,375.0,645.0,1.0,240.0,1,0.47551239928790623,0.0
622,622,-0.11053663503161903,-0.1,1,340.0,739.0,1.0,421.0,1,0.32501878018515706,0.0
623,623,-0.7839926888306192,-0.8,1,330.0,564.0,1.0,276.0,1,0.49552286645516475,0.0
624,624,-0.8436240440853935,-0.8,1,435.0,925.0,1.0,260.0,1,0.16237792902880965,0.0
625,625,-0.04149886549824977,-0.0,1,259.0,786.0,0.0,415.0,0,0.5009253012943629,0.0
626,626,-0.6111958520750482,-0.6,1,307.0,795.0,1.0,198.0,1,0.4091719406917278,0.0
627,627,-0.24026494865904224,-0.2,1,250.0,998.0,1.0,402.0,1,0.7278607594784753,0.0
628,628,-0.5057515133991888,-0.5,1,268.0,996.0,1.0,576.0,1,0.2931620638740373,0.0
629,629,-0.6582789781273544,-0.7,1,285.0,841.0,1.0,204.0,1,0.860839715095208,0.0
630,630,0.7320280539484276,0.7,0,309.0,867.0,0.0,204.0,1,0.7445304683442636,0.0
631,631,0.3467812006037929,0.3,0,307.0,958.0,0.0,275.0,1,0.027340483447244157,0.0
632,632,-0.8077437129381204,-0.8,1,420.0,784.0,1.0,326.0,1,0.007292883212136059,0.0
633,633,-0.9872562762983661,-1.0,1,301.0,597.0,1.0,242.0,1,0.5373961792637113,0.0
634,634,0.2404143021842451,0.2,0,283.0,567.0,0.0,470.0,1,0.4728431069631982,0.0
635,635,0.44208883067522753,0.4,0,463.0,712.0,0.0,515.0,1,0.7542361578517371,0.0
636,636,-0.9882943975026575,-1.0,1,437.0,629.0,1.0,204.0,1,0.09100169703359551,0.0
637,637,0.34642876840791903,0.3,0,396.0,632.0,0.0,602.0,1,0.13255944986100743,0.0
638,638,-0.3024352263740593,-0.3,1,444.0,767.0,1.0,649.0,1,0.10135496513346332,0.0
639,639,0.5023237247608687,0.5,0,326.0,613.0,0.0,191.0,1,0.29445543268826735,0.0
640,640,0.12202669394195653,0.1,0,466.0,702.0,0.0,382.0,1,0.723151236771644,0.0
641,641,0.41405664215280424,0.4,0,343.0,662.0,0.0,385.0,1,0.33547304050134563,0.0
642,642,-0.2657895101146215,-0.3,1,452.0,603.0,1.0,265.0,1,0.589542010902925,0.0
643,643,-0.5263586729259522,-0.5,1,254.0,785.0,1.0,311.0,1,0.875142165276751,0.0
644,644,-0.835195173639639,-0.8,1,285.0,802.0,1.0,213.0,1,0.7598870798994731,0.0
645,645,-0.27338318997838784,-0.3,1,287.0,763.0,1.0,300.0,1,0.14204356022156361,0.0
646,646,-0.706715244200844,-0.7,1,318.0,574.0,1.0,228.0,1,0.6736617308369187,0.0
647,647,0.8625493872895715,0.9,0,370.0,540.0,0.0,220.0,1,0.47688558520028046,0.0
648,648,0.20794336230590615,0.2,0,430.0,873.0,0.0,627.0,1,0.2699846808918376,0.0
649,649,0.8276248960330368,0.8,0,498.0,844.0,0.0,258.0,1,0.6595313961699453,0.0
650,650,0.46449054629855246,0.5,0,285.0,933.0,0.0,472.0,1,0.0022880516668049022,0.0
651,651,0.25671661029813686,0.3,0,434.0,831.0,1.0,315.0,0,0.7995587899349069,0.0
652,652,0.0519411649621111,0.1,0,375.0,729.0,0.0,296.0,1,0.8285744817938028,0.0
653,653,-0.880908779361609,-0.9,1,491.0,723.0,1.0,206.0,1,0.5293478002597637,0.0
654,654,-0.38457898623083997,-0.4,1,291.0,514.0,1.0,615.0,1,0.9385106226743781,0.0
655,655,-0.768324280053637,-0.8,1,422.0,570.0,1.0,238.0,1,0.9651092642629335,0.0
656,656,0.13531194717770711,0.1,0,340.0,544.0,0.0,626.0,1,0.07431827667836566,0.0
657,657,0.06792351513399475,0.1,0,451.0,637.0,0.0,412.0,1,0.8651596909225141,0.0
658,658,-0.681719152907772,-0.7,1,333.0,664.0,1.0,213.0,1,0.4450666248294556,0.0
659,659,0.2063615021865739,0.2,0,331.0,623.0,0.0,266.0,1,0.9490691229608123,0.0
660,660,0.36171645980542744,0.4,0,251.0,936.0,0.0,393.0,1,0.9732836454388628,0.0
661,661,0.9278916299542468,0.9,0,420.0,826.0,0.0,184.0,1,0.28236733832346705,0.0
662,662,0.10138853360408295,0.1,0,458.0,765.0,0.0,727.0,1,0.7122409889712126,0.0
663,663,-0.5027255389102094,-0.5,1,323.0,521.0,1.0,246.0,1,0.16314167938732627,0.0
664,664,-0.20947967718708038,-0.2,1,319.0,932.0,1.0,429.0,1,0.07331477571560263,0.0
665,665,-0.8085677478369873,-0.8,1,387.0,650.0,1.0,163.0,1,0.5982477560574017,0.0
666,666,-0.647408516697151,-0.6,1,410.0,671.0,1.0,229.0,1,0.4139143607941401,0.0
667,667,-0.4596902481614067,-0.5,1,257.0,613.0,1.0,1230.0,1,0.0361030509292366,0.0
668,668,0.8804489846175927,0.9,0,386.0,716.0,0.0,248.0,1,0.22629501971781096,0.0
669,669,0.28940763575661865,0.3,0,399.0,547.0,0.0,304.0,1,0.4661121119243019,0.0
670,670,0.008891195875783797,0.0,0,467.0,869.0,0.0,444.0,1,0.4137524623543254,0.0
671,671,-0.4531960352720157,-0.5,1,417.0,950.0,1.0,383.0,1,0.8888714218861076,0.0
672,672,-0.28445638276133534,-0.3,1,403.0,787.0,1.0,600.0,1,0.47138802325318974,0.0
673,673,0.13238466950476258,0.1,0,439.0,888.0,0.0,513.0,1,0.9312675675406638,0.0
674,674,-0.9193810818454169,-0.9,1,358.0,976.0,1.0,236.0,1,0.6727958762312833,0.0
675,675,-0.24432269862631073,-0.2,1,389.0,627.0,1.0,474.0,1,0.284447251925378,0.0
676,676,0.7981120454540687,0.8,0,363.0,576.0,0.0,181.0,1,0.3839260559210307,0.0
677,677,-0.8139247275414716,-0.8,1,493.0,821.0,1.0,276.0,1,0.6966322657411058,0.0
678,678,-0.6189495593754382,-0.6,1,354.0,677.0,1.0,369.0,1,0.10834084190104143,0.0
679,679,-0.791477196743466,-0.8,1,483.0,592.0,1.0,225.0,1,0.8144932619942247,0.0
680,680,-0.15047099996645796,-0.2,1,316.0,984.0,1.0,490.0,1,0.06600656482295508,0.0
681,681,0.24738998926564548,0.2,0,491.0,581.0,0.0,488.0,1,0.8050182985329061,0.0
682,682,-0.6729291162690347,-0.7,1,286.0,966.0,1.0,168.0,1,0.6735564894281361,0.0
683,683,-0.2161592563385928,-0.2,1,398.0,987.0,1.0,325.0,1,0.3716977671840055,0.0
684,684,-0.8261937386998819,-0.8,1,270.0,569.0,1.0,181.0,1,0.24241056737577837,0.0
685,685,-0.021686737381415133,-0.0,1,405.0,785.0,1.0,670.0,1,0.3903683442123167,0.0
686,686,0.6737898434616965,0.7,0,387.0,747.0,0.0,406.0,1,0.8432964351312976,0.0
687,687,0.971036231344085,1.0,0,316.0,652.0,0.0,242.0,1,0.2744376389945976,0.0
688,688,0.42098014554536967,0.4,0,299.0,744.0,0.0,737.0,1,0.10578470754543434,0.0
689,689,0.36333589176658165,0.4,0,428.0,774.0,0.0,128.0,1,0.7883792831718954,0.0
690,690,0.7045257598519752,0.7,0,441.0,937.0,0.0,282.0,1,0.9995081792619475,0.0
691,691,-0.6871058295900159,-0.7,1,311.0,846.0,1.0,223.0,1,0.8516152677435657,0.0
692,692,0.6445043770833907,0.6,0,497.0,565.0,0.0,338.0,1,0.8311933344747708,0.0
693,693,-0.22736501038051826,-0.2,1,294.0,730.0,1.0,496.0,1,0.4270737287012696,0.0
694,694,-0.08169732756509451,-0.1,1,458.0,779.0,1.0,253.0,1,0.5220652349155324,0.0
695,695,0.014669894864143718,0.0,0,482.0,889.0,1.0,759.0,0,0.9191647700187063,0.0
696,696,0.2799650381186767,0.3,0,258.0,788.0,0.0,234.0,1,0.1966879535334639,0.0
697,697,0.06501692655511793,0.1,0,427.0,588.0,1.0,295.0,0,0.08083281431275113,0.0
698,698,-0.5008945188580212,-0.5,1,335.0,658.0,1.0,217.0,1,0.8487713541607022,0.0
699,699,0.8315963901178556,0.8,0,385.0,558.0,0.0,147.0,1,0.689663121344826,0.0
700,700,-0.11480250573102802,-0.1,1,343.0,706.0,1.0,281.0,1,0.673273867560005,0.0
701,701,0.17094215227969656,0.2,0,305.0,784.0,0.0,391.0,1,0.7185965362196297,0.0
702,702,0.5425085054180476,0.5,0,494.0,988.0,0.0,338.0,1,0.7387749409094865,0.0
703,703,0.8848587358060529,0.9,0,333.0,518.0,0.0,269.0,1,0.404551899389773,0.0
704,704,0.5665361296850882,0.6,0,339.0,813.0,0.0,108.0,1,0.49214689362404695,0.0
705,705,-0.6774853979179429,-0.7,1,313.0,545.0,1.0,252.0,1,0.8241118604665304,0.0
706,706,0.5643708860524745,0.6,0,442.0,564.0,0.0,384.0,1,0.9773907915167528,0.0
707,707,-0.4887431285020778,-0.5,1,484.0,934.0,1.0,282.0,1,0.7462419513180821,0.0
708,708,-0.5266574120112832,-0.5,1,442.0,564.0,1.0,274.0,1,0.6794446932068517,0.0
709,709,0.5767143535759731,0.6,0,379.0,536.0,0.0,225.0,1,0.45191397554842483,0.0
710,710,0.4091603514059865,0.4,0,471.0,619.0,0.0,610.0,1,0.37290270922795155,0.0
711,711,-0.2371801694076039,-0.2,1,357.0,853.0,1.0,470.0,1,0.32608812463927606,0.0
712,712,0.931264475037576,0.9,0,447.0,661.0,0.0,222.0,1,0.5990725715836475,0.0
713,713,0.7581303913947548,0.8,0,380.0,625.0,0.0,215.0,1,0.44087975927073386,0.0
714,714,-0.6088003791058458,-0.6,1,391.0,875.0,1.0,194.0,1,0.6325117399118285,0.0
715,715,0.6148500793925613,0.6,0,475.0,809.0,0.0,266.0,1,0.8535766610282589,0.0
716,716,0.692965529832648,0.7,0,322.0,851.0,0.0,187.0,1,0.7700856413076552,0.0
717,717,-0.5723282627976123,-0.6,1,421.0,808.0,1.0,201.0,1,0.0628682982537292,0.0
718,718,-0.787192723128574,-0.8,1,281.0,970.0,1.0,519.0,1,0.0450928575592463,0.0
719,719,-0.5392410327447288,-0.5,1,292.0,749.0,1.0,219.0,1,0.10788614792123119,0.0
720,720,-0.5791316688605377,-0.6,1,421.0,547.0,1.0,742.0,1,0.1272649183625918,0.0
721,721,0.44207044247295046,0.4,0,445.0,798.0,0.0,217.0,1,0.7889844307789149,0.0
722,722,-0.09809473600614038,-0.1,1,268.0,646.0,0.0,176.0,0,0.9540259781196205,0.0
723,723,-0.23501135079560176,-0.2,1,459.0,953.0,1.0,448.0,1,0.9227230486141655,0.0
724,724,0.6324025158406552,0.6,0,385.0,662.0,0.0,143.0,1,0.4155898724538939,0.0
725,725,-0.7074458800889178,-0.7,1,491.0,604.0,1.0,255.0,1,0.20765544206708697,0.0
726,726,0.21119231623005685,0.2,0,360.0,516.0,0.0,534.0,1,0.2651422149762751,0.0
727,727,0.9237000695767641,0.9,0,393.0,757.0,0.0,240.0,1,0.42613704689188714,0.0
728,728,-0.2703254880695689,-0.3,1,360.0,721.0,1.0,1049.0,1,0.9021389597573674,0.0
729,729,-0.03404903899728029,-0.0,1,280.0,692.0,0.0,278.0,0,0.41872723643566234,0.0
730,730,0.8330179084145468,0.8,0,409.0,799.0,0.0,162.0,1,0.931892479521728,0.0
731,731,0.839778464208023,0.8,0,358.0,637.0,0.0,325.0,1,0.06505370772022756,0.0
732,732,0.3544440574996832,0.4,0,374.0,876.0,0.0,280.0,1,0.5498206915810979,0.0
733,733,-0.49158375884243743,-0.5,1,269.0,943.0,1.0,268.0,1,0.9762466324327695,0.0
734,734,-0.5391061534954966,-0.5,1,452.0,593.0,1.0,325.0,1,0.11100448843086286,0.0
735,735,-0.1955107546763155,-0.2,1,438.0,631.0,1.0,511.0,1,0.32467894237529016,0.0
736,736,0.9100729371873983,0.9,0,434.0,946.0,0.0,210.0,1,0.3826275734457999,0.0
737,737,-0.1390486703914866,-0.1,1,353.0,663.0,1.0,324.0,1,0.5157018099555417,0.0
738,738,0.3515922668414797,0.4,0,357.0,650.0,0.0,153.0,1,0.34031658260977204,0.0
739,739,-0.737945909327665,-0.7,1,481.0,761.0,1.0,218.0,1,0.4041478046070278,0.0
740,740,0.800835903511226,0.8,0,405.0,723.0,0.0,272.0,1,0.2753558006721094,0.0
741,741,0.7397513254008319,0.7,0,337.0,610.0,0.0,243.0,1,0.10819195666694303,0.0
742,742,0.20261060696327715,0.2,0,347.0,531.0,0.0,782.0,1,0.5588793812596772,0.0
743,743,0.6085850494267808,0.6,0,416.0,641.0,0.0,303.0,1,0.26735261267713495,0.0
744,744,-0.025569486806654496,-0.0,1,347.0,645.0,1.0,348.0,1,0.38713941164365817,0.0
745,745,-0.9042528334483033,-0.9,1,452.0,988.0,1.0,260.0,1,0.9379394950084874,0.0
746,746,-0.48215564490068696,-0.5,1,403.0,817.0,1.0,480.0,1,0.6031006602899681,0.0
747,747,0.928503431106771,0.9,0,286.0,673.0,0.0,301.0,1,0.7963646293662877,0.0
748,748,-0.5433847169034669,-0.5,1,484.0,749.0,1.0,387.0,1,0.33407385221777197,0.0
749,749,-0.8020611682669481,-0.8,1,459.0,530.0,1.0,251.0,1,0.825262225372218,0.0
750,750,-0.9539356310995191,-1.0,1,377.0,726.0,1.0,197.0,1,0.476690685362703,0.0
751,751,-0.15080785387758167,-0.2,1,370.0,648.0,1.0,672.0,1,0.5451130024983859,0.0
752,752,-0.8867184196281925,-0.9,1,373.0,804.0,1.0,213.0,1,0.3678467181697108,0.0
753,753,-0.74656980728719,-0.7,1,376.0,809.0,1.0,305.0,1,0.04461873079690537,0.0
754,754,-0.8468986410314279,-0.8,1,426.0,536.0,1.0,278.0,1,0.25882251189737104,0.0
755,755,0.7657685325962293,0.8,0,461.0,514.0,0.0,205.0,1,0.7574087690780329,0.0
756,756,0.46722722647667414,0.5,0,439.0,798.0,0.0,213.0,1,0.9224097016914213,0.0
757,757,-0.428171052134364,-0.4,1,460.0,715.0,1.0,165.0,1,0.7589611427687042,0.0
758,758,-0.04223253805446081,-0.0,1,374.0,836.0,0.0,1030.0,0,0.581030607180814,0.0
759,759,-0.48811418641125504,-0.5,1,318.0,555.0,1.0,327.0,1,0.06044241322418964,0.0
760,760,-0.860233071613997,-0.9,1,475.0,505.0,1.0,130.0,1,0.7599025893801418,0.0
761,761,0.806561529477646,0.8,0,479.0,672.0,0.0,289.0,1,0.27223583069315715,0.0
762,762,-0.9753462248872913,-1.0,1,445.0,556.0,1.0,119.0,1,0.765053553718042,0.0
763,763,-0.5077172448598484,-0.5,1,359.0,680.0,1.0,271.0,1,0.625469844331133,0.0
764,764,-0.4705499183398416,-0.5,1,452.0,890.0,1.0,268.0,1,0.9598184873211786,0.0
765,765,0.07009650584729177,0.1,0,449.0,877.0,0.0,1024.0,1,0.6285427744476227,0.0
766,766,0.21967895460885112,0.2,0,329.0,531.0,0.0,400.0,1,0.615959734098918,0.0
767,767,0.633286527662124,0.6,0,433.0,616.0,0.0,271.0,1,0.8946592732074451,0.0
768,768,-0.23598669677801132,-0.2,1,355.0,957.0,1.0,778.0,1,0.8890568314974726,0.0
769,769,0.8270729270068311,0.8,0,433.0,752.0,0.0,215.0,1,0.03425138223737789,0.0
770,770,-0.5552144800112686,-0.6,1,372.0,974.0,1.0,334.0,1,0.10307217632312371,0.0
771,771,-0.07024995637280829,-0.1,1,470.0,603.0,1.0,337.0,1,0.5673439937615671,0.0
772,772,0.3134541030305025,0.3,0,423.0,734.0,0.0,593.0,1,0.1648140886176016,0.0
773,773,-0.6705837203424754,-0.7,1,252.0,746.0,1.0,292.0,1,0.5043647732751017,0.0
774,774,-0.7506545172470505,-0.8,1,327.0,939.0,1.0,284.0,1,0.8282871972889726,0.0
775,775,-0.5402778915462358,-0.5,1,463.0,661.0,1.0,256.0,1,0.5109629735436563,0.0
776,776,-0.5133674587846757,-0.5,1,354.0,787.0,1.0,489.0,1,0.868608860443883,0.0
777,777,-0.6379759831667327,-0.6,1,486.0,954.0,1.0,220.0,1,0.3805044075750006,0.0
778,778,0.7670057593246116,0.8,0,410.0,985.0,0.0,145.0,1,0.6778556220133215,0.0
779,779,0.32064617425855246,0.3,0,411.0,749.0,0.0,490.0,1,0.5613215560709933,0.0
780,780,0.3096383578517985,0.3,0,349.0,733.0,0.0,448.0,1,0.2561605133017778,0.0
781,781,-0.9096732163575241,-0.9,1,450.0,612.0,1.0,208.0,1,0.5145389440611388,0.0
782,782,-0.10851221938782163,-0.1,1,472.0,632.0,0.0,476.0,0,0.9318022190946237,0.0
783,783,0.8647772812276662,0.9,0,252.0,918.0,0.0,230.0,1,0.7267173574396287,0.0
784,784,0.014636889799497732,0.0,0,383.0,622.0,0.0,305.0,1,0.7193652933080232,0.0
785,785,-0.9565688539159896,-1.0,1,396.0,694.0,1.0,260.0,1,0.3608567263879888,0.0
786,786,0.07580207843017028,0.1,0,281.0,551.0,0.0,368.0,1,0.6841257060292755,0.0
787,787,0.6220166692059839,0.6,0,299.0,835.0,0.0,226.0,1,0.7711249591715659,0.0
788,788,0.2321637466908415,0.2,0,433.0,627.0,0.0,570.0,1,0.9130100663563542,0.0
789,789,-0.021370141578455515,-0.0,1,320.0,632.0,1.0,538.0,1,0.6989583202739436,0.0
790,790,0.8192258996496431,0.8,0,278.0,712.0,0.0,390.0,1,0.9516644313800179,0.0
791,791,-0.34911594705991544,-0.3,1,411.0,509.0,1.0,510.0,1,0.2169522030426937,0.0
792,792,-0.9618808233029337,-1.0,1,453.0,550.0,1.0,267.0,1,0.10845180262509402,0.0
793,793,0.8547900174711156,0.9,0,269.0,559.0,0.0,272.0,1,0.048431410588600676,0.0
794,794,0.8850012468266635,0.9,0,342.0,844.0,0.0,124.0,1,0.5042684995615081,0.0
795,795,0.13060122187295242,0.1,0,302.0,840.0,0.0,408.0,1,0.6750329735768306,0.0
796,796,-0.2269791229705489,-0.2,1,342.0,869.0,0.0,409.0,0,0.7665068976144136,0.0
797,797,-0.13312709112666488,-0.1,1,424.0,781.0,1.0,385.0,1,0.28422587025877033,0.0
798,798,-0.28926071123896935,-0.3,1,352.0,644.0,1.0,314.0,1,0.7352955330107068,0.0
799,799,-0.8438311570026713,-0.8,1,476.0,988.0,1.0,326.0,1,0.024194463919403053,0.0
800,800,-0.9069595263144732,-0.9,1,269.0,934.0,1.0,247.0,1,0.21233905564049982,0.0
801,801,0.7579454135737811,0.8,0,494.0,610.0,0.0,326.0,1,0.01726394970923051,0.0
802,802,0.23161966744079288,0.2,0,387.0,608.0,0.0,485.0,1,0.061177783089562454,0.0
803,803,0.3344343026614611,0.3,0,457.0,616.0,0.0,487.0,1,0.26716923254545555,0.0
804,804,-0.26145835629638436,-0.3,1,436.0,997.0,1.0,1277.0,1,0.12110017157639397,0.0
805,805,0.3164408126799101,0.3,0,374.0,575.0,0.0,271.0,1,0.9576725053918946,0.0
806,806,-0.6289602419254479,-0.6,1,461.0,576.0,1.0,403.0,1,0.9350904721839034,0.0
807,807,-0.5476346064607427,-0.5,1,339.0,552.0,1.0,259.0,1,0.6543171308903651,0.0
808,808,0.021539380689874488,0.0,0,335.0,823.0,1.0,872.0,0,0.4888627769863313,0.0
809,809,-0.9067893404697376,-0.9,1,496.0,821.0,1.0,113.0,1,0.7395659938870152,0.0
810,810,-0.6232331083489697,-0.6,1,465.0,854.0,1.0,201.0,1,0.11736912623213525,0.0
811,811,0.5510128838638872,0.6,0,346.0,567.0,0.0,207.0,1,0.13038448543840409,0.0
812,812,0.3450365193879339,0.3,0,407.0,699.0,0.0,214.0,1,0.29535344551539755,0.0
813,813,-0.3764446911487014,-0.4,1,453.0,717.0,1.0,250.0,1,0.3564836004665476,0.0
814,814,0.24648667671784863,0.2,0,429.0,727.0,0.0,394.0,1,0.3874509372401267,0.0
815,815,-0.9196175005099039,-0.9,1,429.0,700.0,1.0,211.0,1,0.9507317503152934,0.0
816,816,0.6344332631076166,0.6,0,349.0,763.0,0.0,148.0,1,0.5278363784190283,0.0
817,817,0.38697964028581766,0.4,0,328.0,502.0,0.0,450.0,1,0.23682059178803438,0.0
818,818,0.03261033544663494,0.0,0,471.0,783.0,0.0,266.0,1,0.8759277840507399,0.0
819,819,-0.5941881243677078,-0.6,1,364.0,977.0,1.0,249.0,1,0.21542913875892733,0.0
820,820,-0.9745596055026797,-1.0,1,306.0,961.0,1.0,273.0,1,0.7449221964353999,0.0
821,821,0.7982666325640224,0.8,0,340.0,655.0,0.0,245.0,1,0.05599660098415238,0.0
822,822,0.9623648972663252,1.0,0,430.0,735.0,0.0,265.0,1,0.12042684920297486,0.0
823,823,-0.8734120782156936,-0.9,1,325.0,868.0,1.0,217.0,1,0.9970553372844665,0.0
824,824,0.575487451887559,0.6,0,264.0,804.0,0.0,332.0,1,0.19640482468778953,0.0
825,825,0.6518582265819259,0.7,0,458.0,691.0,0.0,281.0,1,0.0713487048517466,0.0
826,826,-0.949542376875631,-0.9,1,490.0,987.0,1.0,153.0,1,0.19993183534440506,0.0
827,827,0.6795221009354413,0.7,0,350.0,867.0,0.0,213.0,1,0.5594962189644381,0.0
828,828,-0.46767795582897564,-0.5,1,440.0,951.0,1.0,699.0,1,0.22687035497827013,0.0
829,829,-0.6285003996341225,-0.6,1,318.0,645.0,1.0,277.0,1,0.6184786244634937,0.0
830,830,0.1440979983592916,0.1,0,276.0,705.0,0.0,409.0,1,0.7061694638628652,0.0
831,831,0.4056226765553479,0.4,0,406.0,936.0,0.0,248.0,1,0.10457490066281838,0.0
832,832,0.4918606469950786,0.5,0,347.0,839.0,0.0,534.0,1,0.9686160724932825,0.0
833,833,-0.5622668929687391,-0.6,1,268.0,816.0,1.0,166.0,1,0.2872555050368355,0.0
834,834,-0.4372126634748317,-0.4,1,290.0,960.0,1.0,340.0,1,0.7901823175518125,0.0
835,835,-0.2958146206834611,-0.3,1,386.0,561.0,1.0,343.0,1,0.05949093762599589,0.0
836,836,0.6988963130872128,0.7,0,429.0,917.0,0.0,324.0,1,0.4938319094313083,0.0
837,837,0.9279692503899122,0.9,0,368.0,709.0,0.0,203.0,1,0.30921840403794265,0.0
838,838,0.17001986263476443,0.2,0,352.0,979.0,0.0,439.0,1,0.1734596804360894,0.0
839,839,-0.6757405078083423,-0.7,1,384.0,597.0,1.0,209.0,1,0.25773146574304695,0.0
840,840,0.5811562481390498,0.6,0,265.0,840.0,0.0,295.0,1,0.7651210722326778,0.0
841,841,-0.05774192295551961,-0.1,1,402.0,728.0,1.0,1210.0,1,0.3286027092198781,0.0
842,842,0.5947872856626448,0.6,0,422.0,506.0,0.0,322.0,1,0.035513934913416034,0.0
843,843,-0.6529243178816138,-0.7,1,349.0,526.0,1.0,415.0,1,0.23224499428115886,0.0
844,844,-0.5195546972522431,-0.5,1,380.0,830.0,1.0,310.0,1,0.9410743549874474,0.0
845,845,0.3976198286916919,0.4,0,412.0,710.0,0.0,258.0,1,0.19368622178168315,0.0
846,846,0.0965418011866439,0.1,0,337.0,950.0,0.0,363.0,1,0.4632665703020895,0.0
847,847,0.940558669145432,0.9,0,285.0,876.0,0.0,229.0,1,0.7473663285593785,0.0
848,848,0.003703575250130875,0.0,0,488.0,893.0,0.0,1119.0,1,0.7680197203435422,0.0
849,849,0.8170298317911044,0.8,0,384.0,802.0,0.0,184.0,1,0.3940754790432959,0.0
850,850,0.4874911860848312,0.5,0,447.0,895.0,0.0,468.0,1,0.725607356423089,0.0
851,851,0.45804576591206714,0.5,0,334.0,842.0,0.0,184.0,1,0.6764096903210182,0.0
852,852,0.08543274714448068,0.1,0,387.0,749.0,0.0,794.0,1,0.6827404234565603,0.0
853,853,0.892970222456039,0.9,0,275.0,712.0,0.0,183.0,1,0.6295950773013131,0.0
854,854,0.5092544206695495,0.5,0,279.0,548.0,0.0,393.0,1,0.41927218763152363,0.0
855,855,-0.36605796490742404,-0.4,1,266.0,543.0,1.0,671.0,1,0.6367994071622441,0.0
856,856,-0.07909160980573171,-0.1,1,384.0,799.0,1.0,397.0,1,0.17149870537202994,0.0
857,857,-0.4125179132095904,-0.4,1,476.0,859.0,1.0,335.0,1,0.7762405997274674,0.0
858,858,0.3587048384315865,0.4,0,326.0,878.0,0.0,396.0,1,0.8128703212175694,0.0
859,859,-0.8862753547737157,-0.9,1,371.0,984.0,1.0,265.0,1,0.12521917927580772,0.0
860,860,-0.7872855408413393,-0.8,1,487.0,885.0,1.0,168.0,1,0.675088128995197,0.0
861,861,0.7953012350611512,0.8,0,286.0,860.0,0.0,234.0,1,0.44058060812430055,0.0
862,862,0.20029124672762855,0.2,0,316.0,884.0,0.0,260.0,1,0.770490656245933,0.0
863,863,-0.1723332120376111,-0.2,1,402.0,633.0,1.0,415.0,1,0.010007697003429517,0.0
864,864,-0.2960383495548291,-0.3,1,264.0,729.0,1.0,367.0,1,0.7496678366103949,0.0
865,865,0.4018604785736799,0.4,0,351.0,527.0,0.0,482.0,1,0.07473443595255724,0.0
866,866,0.14360042635073733,0.1,0,322.0,504.0,0.0,974.0,1,0.36979014939635746,0.0
867,867,-0.4903574769529886,-0.5,1,494.0,801.0,1.0,275.0,1,0.5899538444954775,0.0
868,868,0.45870144807467517,0.5,0,354.0,755.0,0.0,281.0,1,0.409088281439972,0.0
869,869,-0.1870093470755052,-0.2,1,400.0,501.0,1.0,1639.0,1,0.5652328373510555,0.0
870,870,0.9950187821028593,1.0,0,371.0,844.0,0.0,225.0,1,0.8372725559206514,0.0
871,871,-0.8803715372921543,-0.9,1,369.0,857.0,1.0,174.0,1,0.5149419578027921,0.0
872,872,-0.8205149506729132,-0.8,1,329.0,845.0,1.0,346.0,1,0.30738527218326206,0.0
873,873,0.972472496179182,1.0,0,271.0,840.0,0.0,149.0,1,0.4273083867512325,0.0
874,874,0.682128498121074,0.7,0,314.0,638.0,0.0,468.0,1,0.04075738262886286,0.0
875,875,0.8165815102762333,0.8,0,277.0,767.0,0.0,246.0,1,0.34786735537820646,0.0
876,876,-0.8712776623878307,-0.9,1,460.0,598.0,1.0,192.0,1,0.5255029326272411,0.0
877,877,-0.3573538116406745,-0.4,1,443.0,506.0,1.0,261.0,1,0.5704472821730606,0.0
878,878,0.3408773353636989,0.3,0,467.0,872.0,0.0,481.0,1,0.8160764446554759,0.0
879,879,0.7276968482784889,0.7,0,298.0,699.0,0.0,183.0,1,0.21492618337742941,0.0
880,880,0.5913874503537035,0.6,0,486.0,640.0,0.0,744.0,1,0.12453660462137683,0.0
881,881,-0.36145200112926923,-0.4,1,478.0,684.0,1.0,798.0,1,0.21922210256039865,0.0
882,882,-0.9277698898385851,-0.9,1,422.0,816.0,1.0,262.0,1,0.020686568501519953,0.0
883,883,-0.2654195082951789,-0.3,1,318.0,535.0,1.0,367.0,1,0.5042738045275541,0.0
884,884,-0.15078772761772785,-0.2,1,412.0,947.0,1.0,611.0,1,0.8620695227917194,0.0
885,885,0.9707802992586996,1.0,0,469.0,848.0,0.0,143.0,1,0.673161454517612,0.0
886,886,0.31520698156605076,0.3,0,483.0,528.0,0.0,539.0,1,0.4082455234753364,0.0
887,887,0.816321135676833,0.8,0,388.0,928.0,0.0,164.0,1,0.3544354649987832,0.0
888,888,-0.8160942331382106,-0.8,1,397.0,783.0,1.0,250.0,1,0.8103528826921742,0.0
889,889,-0.41063229149188585,-0.4,1,353.0,808.0,1.0,429.0,1,0.46452288988167123,0.0
890,890,-0.5457229554153471,-0.5,1,379.0,959.0,1.0,312.0,1,0.27913548918617803,0.0
891,891,0.18155644589036601,0.2,0,297.0,816.0,0.0,577.0,1,0.2457551925185658,0.0
892,892,-0.33429646551800096,-0.3,1,421.0,853.0,1.0,286.0,1,0.6529068310784952,0.0
893,893,-0.6324601513083881,-0.6,1,470.0,773.0,1.0,197.0,1,0.9489766234067404,0.0
894,894,0.9948312560454253,1.0,0,259.0,503.0,0.0,148.0,1,0.8366563573491375,0.0
895,895,-0.2555723283562128,-0.3,1,364.0,978.0,1.0,558.0,1,0.49421303622968793,0.0
896,896,-0.17801889744156907,-0.2,1,403.0,915.0,1.0,312.0,1,0.5472837105217566,0.0
897,897,0.15102399351126983,0.2,0,270.0,643.0,1.0,517.0,0,0.3272478175828454,0.0
898,898,-0.9644898536616169,-1.0,1,497.0,931.0,1.0,292.0,1,0.2178003741936798,0.0
899,899,0.012690840196891928,0.0,0,483.0,633.0,0.0,1364.0,1,0.4473692662538665,0.0
900,900,-0.7010026206070916,-0.7,1,255.0,511.0,1.0,184.0,1,0.514928817387284,0.0
901,901,-0.4336485289715457,-0.4,1,268.0,943.0,1.0,189.0,1,0.31742207022765445,0.0
902,902,0.3893363758398771,0.4,0,404.0,700.0,0.0,516.0,1,0.8943724185881958,0.0
903,903,-0.6863475224538225,-0.7,1,300.0,833.0,1.0,427.0,1,0.1535273785673652,0.0
904,904,0.5887761342559297,0.6,0,491.0,864.0,0.0,185.0,1,0.9018190438742587,0.0
905,905,0.10865609480973903,0.1,0,333.0,644.0,0.0,623.0,1,0.7859402549701832,0.0
906,906,0.6702528757985724,0.7,0,388.0,670.0,0.0,202.0,1,0.41666912650059984,0.0
907,907,-0.0005452946663710989,-0.0,1,268.0,751.0,1.0,901.0,1,0.5605303200831,0.0
908,908,-0.20486519919615187,-0.2,1,326.0,720.0,1.0,354.0,1,0.39905225154825097,0.0
909,909,0.5676459010346016,0.6,0,263.0,663.0,0.0,324.0,1,0.26875851443916077,0.0
910,910,0.17516350513470025,0.2,0,307.0,781.0,0.0,592.0,1,0.190891682243009,0.0
911,911,-0.052900998750900596,-0.1,1,350.0,871.0,1.0,429.0,1,0.5632658052688563,0.0
912,912,-0.1416914121616657,-0.1,1,485.0,550.0,1.0,585.0,1,0.6493631104285797,0.0
913,913,0.2267586567428368,0.2,0,478.0,524.0,0.0,298.0,1,0.03520946507300926,0.0
914,914,0.6368719302242103,0.6,0,402.0,871.0,0.0,187.0,1,0.5875786310877988,0.0
915,915,-0.36604448194573047,-0.4,1,373.0,807.0,1.0,470.0,1,0.5558030571988114,0.0
916,916,0.8407326144946266,0.8,0,448.0,785.0,0.0,207.0,1,0.8583717202542197,0.0
917,917,-0.6859994600162462,-0.7,1,447.0,813.0,1.0,360.0,1,0.09575950134647093,0.0
918,918,-0.46271648177236013,-0.5,1,466.0,597.0,1.0,197.0,1,0.9640340340967825,0.0
919,919,-0.44740139913904,-0.4,1,453.0,583.0,1.0,284.0,1,0.57041434358882,0.0
920,920,0.5858478255447279,0.6,0,446.0,835.0,0.0,259.0,1,0.6666001969150496,0.0
921,921,0.6050936946071412,0.6,0,476.0,536.0,0.0,688.0,1,0.6924612341677334,0.0
922,922,-0.14057979846033541,-0.1,1,460.0,873.0,1.0,447.0,1,0.16273900699612898,0.0
923,923,-0.8763380831598626,-0.9,1,346.0,583.0,1.0,331.0,1,0.2503484964652056,0.0
924,924,0.7966742206939914,0.8,0,309.0,903.0,0.0,168.0,1,0.3880160815565238,0.0
925,925,0.6052963380687424,0.6,0,394.0,657.0,0.0,419.0,1,0.11320561712324362,0.0
926,926,-0.7209802163791614,-0.7,1,311.0,772.0,1.0,327.0,1,0.144126922531286,0.0
927,927,-0.5603628359069797,-0.6,1,476.0,640.0,1.0,504.0,1,0.28205571076986136,0.0
928,928,0.05598258222732344,0.1,0,483.0,804.0,0.0,453.0,1,0.9047941899497065,0.0
929,929,0.09865457696068347,0.1,0,367.0,596.0,0.0,197.0,1,0.17310970778121237,0.0
930,930,0.15331367696412013,0.2,0,461.0,641.0,0.0,278.0,1,0.7964580507404992,0.0
931,931,-0.9828001299432887,-1.0,1,330.0,794.0,1.0,216.0,1,0.9747523561295949,0.0
932,932,-0.2819504952434597,-0.3,1,253.0,760.0,1.0,347.0,1,0.9065469332002198,0.0
933,933,-0.31971963423752814,-0.3,1,434.0,663.0,1.0,313.0,1,0.28834265053907826,0.0
934,934,0.3962630235207134,0.4,0,440.0,769.0,0.0,371.0,1,0.14091798271725142,0.0
935,935,0.827035707930416,0.8,0,336.0,832.0,0.0,192.0,1,0.19293304923070786,0.0
936,936,-0.47710261155886924,-0.5,1,278.0,505.0,1.0,537.0,1,0.047521848025167346,0.0
937,937,0.5943091965602858,0.6,0,397.0,922.0,0.0,261.0,1,0.25760031033557274,0.0
938,938,0.7955213381559652,0.8,0,432.0,713.0,0.0,295.0,1,0.529680979035015,0.0
939,939,-0.6994211044545571,-0.7,1,369.0,878.0,1.0,233.0,1,0.7510489120183602,0.0
940,940,-0.5705703249072709,-0.6,1,399.0,577.0,1.0,304.0,1,0.12537076488406163,0.0
941,941,-0.9187859856336471,-0.9,1,301.0,953.0,1.0,136.0,1,0.27364885374655357,0.0
942,942,-0.5118563920898442,-0.5,1,359.0,698.0,1.0,333.0,1,0.6353252538103554,0.0
943,943,0.04244858497606163,0.0,0,250.0,928.0,0.0,372.0,1,0.09342526519552108,0.0
944,944,0.6123248537069241,0.6,0,490.0,702.0,0.0,378.0,1,0.18529868693246854,0.0
945,945,0.990348709248343,1.0,0,251.0,917.0,0.0,182.0,1,0.5484568369223094,0.0
946,946,-0.005005650943363138,-0.0,1,435.0,779.0,0.0,856.0,0,0.7951156764815425,0.0
947,947,-0.2155636878029521,-0.2,1,357.0,769.0,1.0,1024.0,1,0.9209154940356384,0.0
948,948,0.2926294349537135,0.3,0,389.0,560.0,0.0,201.0,1,0.4905060929196954,0.0
949,949,-0.8472525589853632,-0.8,1,391.0,928.0,1.0,171.0,1,0.858327054738836,0.0
950,950,0.06202726394960156,0.1,0,264.0,570.0,1.0,346.0,0,0.32826150406543886,0.0
951,951,-0.035426708938007145,-0.0,1,373.0,682.0,1.0,795.0,1,0.83483265159512,0.0
952,952,0.35718301216814674,0.4,0,345.0,857.0,0.0,258.0,1,0.5949874009318392,0.0
953,953,-0.3020472866612487,-0.3,1,438.0,700.0,1.0,272.0,1,0.5457250196773126,0.0
954,954,0.10193293785392177,0.1,0,438.0,845.0,0.0,1097.0,1,0.7820484779238862,0.0
955,955,-0.3547928456039384,-0.4,1,461.0,764.0,1.0,245.0,1,0.727020028041893,0.0
956,956,0.4296005197085506,0.4,0,377.0,668.0,0.0,385.0,1,0.5080461821440928,0.0
957,957,-0.6904302603291992,-0.7,1,484.0,952.0,1.0,254.0,1,0.9790579449317267,0.0
958,958,0.0856490147811606,0.1,0,281.0,993.0,0.0,426.0,1,0.95450892219385,0.0
959,959,-0.701705269721149,-0.7,1,444.0,824.0,1.0,372.0,1,0.23882054438371514,0.0
960,960,-0.0712644138281775,-0.1,1,487.0,551.0,1.0,312.0,1,0.34854650273241505,0.0
961,961,0.03632141449220461,0.0,0,383.0,539.0,0.0,828.0,1,0.9169917121397636,0.0
962,962,0.32595285910922445,0.3,0,315.0,738.0,0.0,287.0,1,0.18512755781548784,0.0
963,963,-0.8909902017597682,-0.9,1,498.0,999.0,1.0,243.0,1,0.6444799014627537,0.0
964,964,-0.253870986969037,-0.3,1,406.0,711.0,1.0,813.0,1,0.9141554530889308,0.0
965,965,-0.9330942162811386,-0.9,1,262.0,555.0,1.0,283.0,1,0.127139136182444,0.0
966,966,-0.5494234282976258,-0.5,1,468.0,615.0,1.0,167.0,1,0.8121892327016479,0.0
967,967,0.9420580978928161,0.9,0,469.0,933.0,0.0,128.0,1,0.2485082816623626,0.0
968,968,0.24678194785447038,0.2,0,376.0,877.0,0.0,197.0,1,0.7225823431684931,0.0
969,969,0.6141237564786453,0.6,0,269.0,857.0,0.0,244.0,1,0.18543193228139443,0.0
970,970,-0.27724411395865234,-0.3,1,351.0,978.0,1.0,581.0,1,0.07895987213382472,0.0
971,971,0.2666622749406553,0.3,0,348.0,915.0,0.0,317.0,1,0.4769020622955542,0.0
972,972,-0.8655956664414208,-0.9,1,275.0,827.0,1.0,378.0,1,0.4152735512723278,0.0
973,973,-0.49852569549984715,-0.5,1,328.0,813.0,1.0,249.0,1,0.1724819251646158,0.0
974,974,0.9032917257352799,0.9,0,352.0,891.0,0.0,107.0,1,0.9080811082571314,0.0
975,975,0.008127575835961132,0.0,0,401.0,829.0,0.0,680.0,1,0.43678821698400605,0.0
976,976,0.13339877696525737,0.1,0,382.0,616.0,0.0,842.0,1,0.14657713584058163,0.0
977,977,-0.07217426831025464,-0.1,1,337.0,933.0,0.0,1470.0,0,0.9531689810084912,0.0
978,978,0.005021032946630255,0.0,0,474.0,777.0,0.0,749.0,1,0.9286703547338743,0.0
979,979,-0.5403248341473827,-0.5,1,258.0,562.0,1.0,320.0,1,0.8100007781526102,0.0
980,980,-0.6924598620926568,-0.7,1,480.0,967.0,1.0,293.0,1,0.11049644153715876,0.0
981,981,0.3562711559087781,0.4,0,278.0,710.0,0.0,402.0,1,0.6882293673926682,0.0
982,982,-0.6429386619507957,-0.6,1,342.0,899.0,1.0,299.0,1,0.43546285747733604,0.0
983,983,0.4424904368639533,0.4,0,410.0,553.0,0.0,197.0,1,0.9821115550309972,0.0
984,984,0.647147023641581,0.6,0,411.0,788.0,0.0,261.0,1,0.9653861877196775,0.0
985,985,-0.058427929715228144,-0.1,1,378.0,811.0,0.0,461.0,0,0.7455690547125773,0.0
986,986,-0.009148691060566705,-0.0,1,372.0,708.0,1.0,520.0,1,0.4135790880595479,0.0
987,987,0.7775996719218505,0.8,0,493.0,725.0,0.0,492.0,1,0.009164106270368899,0.0
988,988,-0.8061567415102058,-0.8,1,433.0,698.0,1.0,229.0,1,0.40660724095529255,0.0
989,989,-0.062232597084414865,-0.1,1,446.0,525.0,1.0,399.0,1,0.0557266575361125,0.0
990,990,-0.8386054680489266,-0.8,1,422.0,638.0,1.0,210.0,1,0.569025859220457,0.0
991,991,0.07198353953801284,0.1,0,493.0,695.0,0.0,462.0,1,0.4227112650444341,0.0
992,992,-0.7069573561309808,-0.7,1,410.0,852.0,1.0,318.0,1,0.30519471826402145,0.0
993,993,0.36142316372444716,0.4,0,321.0,696.0,0.0,363.0,1,0.20642963206841758,0.0
994,994,-0.7186423225995027,-0.7,1,447.0,759.0,1.0,334.0,1,0.8760366372727217,0.0
995,995,0.9339532219323343,0.9,0,277.0,824.0,0.0,259.0,1,0.8545327540968384,0.0
996,996,-0.3451966483259934,-0.3,1,308.0,794.0,1.0,298.0,1,0.4044982350901648,0.0
997,997,-0.3635878436100508,-0.4,1,399.0,520.0,1.0,381.0,1,0.11763118051152843,0.0
998,998,0.37127886375983254,0.4,0,433.0,890.0,0.0,337.0,1,0.16743318670112228,0.0
999,999,0.045259053214696365,0.0,0,303.0,705.0,0.0,632.0,1,0.2813597978388622,0.0
1000,1000,0.37041315844724276,0.4,0,267.0,876.0,0.0,327.0,1,0.42833756011373025,0.0
1001,1001,0.42014176983799256,0.4,0,440.0,657.0,0.0,293.0,1,0.08465418615650899,0.0
1002,1002,-0.7606560156145525,-0.8,1,344.0,963.0,1.0,213.0,1,0.805087095548519,0.0
1003,1003,0.05897641699416001,0.1,0,349.0,710.0,1.0,431.0,0,0.11024276405341649,0.0
1004,1004,0.9302208414736086,0.9,0,355.0,744.0,0.0,151.0,1,0.5182432813637747,0.0
1005,1005,0.9585687884775271,1.0,0,397.0,829.0,0.0,394.0,1,0.049940508137050976,0.0
1006,1006,-0.8203572226052556,-0.8,1,322.0,572.0,1.0,236.0,1,0.08705581945133745,0.0
1007,1007,0.5165618474018798,0.5,0,479.0,718.0,0.0,463.0,1,0.23073558380178238,0.0
1008,1008,-0.30172806582016976,-0.3,1,368.0,970.0,1.0,282.0,1,0.24325360105970606,0.0
1009,1009,-0.33836054515511416,-0.3,1,411.0,795.0,1.0,274.0,1,0.33118058614143964,0.0
1010,1010,-0.11282542431216047,-0.1,1,283.0,655.0,0.0,1052.0,0,0.9535131259235603,0.0
1011,1011,0.4389943689011251,0.4,0,292.0,986.0,0.0,282.0,1,0.5613441935763593,0.0
1012,1012,-0.04469292913060241,-0.0,1,262.0,855.0,1.0,453.0,1,0.7551144492268337,0.0
1013,1013,-0.744444259445499,-0.7,1,384.0,906.0,1.0,300.0,1,0.26825156109708537,0.0
1014,1014,-0.44887673444755594,-0.4,1,353.0,711.0,1.0,336.0,1,0.0514156315987957,0.0
1015,1015,-0.11236775398291754,-0.1,1,439.0,515.0,1.0,326.0,1,0.13762146444061474,0.0
1016,1016,-0.20553839313500766,-0.2,1,296.0,514.0,1.0,560.0,1,0.5077763167086813,0.0
1017,1017,0.4958601976499031,0.5,0,292.0,611.0,0.0,147.0,1,0.5937895782646869,0.0
1018,1018,-0.6942497672098937,-0.7,1,366.0,520.0,1.0,204.0,1,0.5048014380526709,0.0
1019,1019,0.08704478129901116,0.1,0,372.0,659.0,0.0,699.0,1,0.911481183459896,0.0
1020,1020,-0.19627426563673467,-0.2,1,289.0,981.0,1.0,450.0,1,0.8310994667926415,0.0
1021,1021,0.737822771327874,0.7,0,406.0,816.0,0.0,228.0,1,0.5460013653787601,0.0
1022,1022,0.3885326040124186,0.4,0,460.0,522.0,0.0,358.0,1,0.8336610221890831,0.0
1023,1023,0.987155022603085,1.0,0,261.0,674.0,0.0,285.0,1,0.8654660930432027,0.0
1024,1024,-0.3181173469702703,-0.3,1,392.0,643.0,1.0,525.0,1,0.25428398028240995,0.0
1025,1025,0.2551348036558667,0.3,0,457.0,601.0,0.0,152.0,1,0.6155645745118685,0.0
1026,1026,0.6067823571388549,0.6,0,417.0,851.0,0.0,652.0,1,0.05366988449056387,0.0
1027,1027,-0.03346909008656507,-0.0,1,397.0,749.0,1.0,324.0,1,0.3751365077633927,0.0
1028,1028,-0.3205405993170427,-0.3,1,271.0,785.0,1.0,514.0,1,0.045059075854192554,0.0
1029,1029,-0.6965475220203396,-0.7,1,387.0,853.0,1.0,280.0,1,0.303918329455255,0.0
1030,1030,-0.8842514800793255,-0.9,1,440.0,782.0,1.0,168.0,1,0.8979205504084063,0.0
1031,1031,-0.26445188553586685,-0.3,1,346.0,925.0,1.0,299.0,1,0.9642287454578031,0.0
1032,1032,0.8526389241013226,0.9,0,310.0,707.0,0.0,113.0,1,0.5016947102371456,0.0
1033,1033,-0.0487008899769894,-0.0,1,404.0,508.0,1.0,418.0,1,0.008008941505185052,0.0
1034,1034,-0.6898385575149295,-0.7,1,332.0,765.0,1.0,413.0,1,0.051017858176955366,0.0
1035,1035,-0.5298448483844258,-0.5,1,443.0,711.0,1.0,376.0,1,0.4218413568831506,0.0
1036,1036,0.5293533298895603,0.5,0,373.0,672.0,0.0,315.0,1,0.7698220694498984,0.0
1037,1037,-0.2348056983793987,-0.2,1,382.0,593.0,1.0,615.0,1,0.17292594551206342,0.0
1038,1038,-0.680355670493243,-0.7,1,441.0,896.0,1.0,293.0,1,0.8484889169583988,0.0
1039,1039,0.15511742439387532,0.2,0,341.0,913.0,0.0,1056.0,1,0.6142432879871437,0.0
1040,1040,0.05313469953042382,0.1,0,260.0,712.0,0.0,888.0,1,0.11786864528453112,0.0
1041,1041,0.27440615149001824,0.3,0,375.0,803.0,0.0,402.0,1,0.05118188562372172,0.0
1042,1042,-0.6163341233441837,-0.6,1,279.0,802.0,1.0,219.0,1,0.6634383071225477,0.0
1043,1043,-0.6940515401140557,-0.7,1,423.0,910.0,1.0,197.0,1,0.46634930718919865,0.0
1044,1044,0.869175765253833,0.9,0,286.0,545.0,0.0,219.0,1,0.4508541412573617,0.0
1045,1045,-0.9668561179979489,-1.0,1,466.0,529.0,1.0,355.0,1,0.18012507758716245,0.0
1046,1046,-0.8364912158983424,-0.8,1,311.0,859.0,1.0,230.0,1,0.18384808541851738,0.0
1047,1047,0.102518341841628,0.1,0,272.0,953.0,1.0,405.0,0,0.2972126677367287,0.0
1048,1048,-0.7607089290881277,-0.8,1,422.0,666.0,1.0,162.0,1,0.4414060575384534,0.0
1049,1049,-0.6878650491487939,-0.7,1,348.0,927.0,1.0,345.0,1,0.6905920466670219,0.0
1050,1050,-0.4979117454585822,-0.5,1,376.0,769.0,1.0,215.0,1,0.2944864482137578,0.0
1051,1051,0.3059870104894429,0.3,0,473.0,840.0,0.0,377.0,1,0.31553088162845433,0.0
1052,1052,0.6021328274731581,0.6,0,290.0,810.0,0.0,370.0,1,0.10465337341740832,0.0
1053,1053,0.6863290590115416,0.7,0,373.0,817.0,0.0,200.0,1,0.6935938709337588,0.0
1054,1054,0.2779735448530074,0.3,0,497.0,764.0,0.0,219.0,1,0.6099053669175578,0.0
1055,1055,-0.845648102188922,-0.8,1,289.0,510.0,1.0,391.0,1,0.03192282185181772,0.0
1056,1056,-0.8766956780525366,-0.9,1,423.0,518.0,1.0,309.0,1,0.00893993644883817,0.0
1057,1057,0.9263578407117927,0.9,0,434.0,716.0,0.0,150.0,1,0.5781868794791235,0.0
1058,1058,-0.9712094763648313,-1.0,1,289.0,700.0,1.0,151.0,1,0.8685446976736614,0.0
1059,1059,-0.7760565816711356,-0.8,1,254.0,764.0,1.0,232.0,1,0.797541593795193,0.0
1060,1060,-0.45739603121547656,-0.5,1,442.0,759.0,1.0,559.0,1,0.05335538912732751,0.0
1061,1061,-0.1488100640862966,-0.1,1,428.0,735.0,0.0,347.0,0,0.9368872001174264,0.0
1062,1062,0.09254689003863659,0.1,0,259.0,727.0,0.0,374.0,1,0.14030870263872863,0.0
1063,1063,-0.6061526952366165,-0.6,1,273.0,919.0,1.0,288.0,1,0.3674013888172011,0.0
1064,1064,-0.08330549782781738,-0.1,1,338.0,578.0,1.0,344.0,1,0.39279998025486207,0.0
1065,1065,-0.018297377806128612,-0.0,1,409.0,858.0,1.0,683.0,1,0.052906657561770376,0.0
1066,1066,0.6210058479854714,0.6,0,262.0,845.0,0.0,173.0,1,0.4240383497846315,0.0
1067,1067,0.24819421860315605,0.2,0,391.0,837.0,0.0,452.0,1,0.43597637423074886,0.0
1068,1068,-0.1719762690859974,-0.2,1,411.0,725.0,1.0,394.0,1,0.6908563993024123,0.0
1069,1069,-0.42303371629115816,-0.4,1,314.0,555.0,1.0,381.0,1,0.12098956162361829,0.0
1070,1070,-0.2973004521406506,-0.3,1,377.0,543.0,1.0,320.0,1,0.7622906816089142,0.0
1071,1071,-0.21395139172219269,-0.2,1,305.0,698.0,1.0,677.0,1,0.15460073877616765,0.0
1072,1072,0.7613128283667245,0.8,0,430.0,958.0,0.0,372.0,1,0.9764298048438097,0.0
1073,1073,-0.21466690655604515,-0.2,1,266.0,934.0,1.0,250.0,1,0.4535934688263362,0.0
1074,1074,-0.5897287057739453,-0.6,1,464.0,591.0,1.0,255.0,1,0.22256075218133187,0.0
1075,1075,-0.8818828379400292,-0.9,1,400.0,584.0,1.0,186.0,1,0.962718081926087,0.0
1076,1076,0.3589078367890748,0.4,0,433.0,655.0,0.0,312.0,1,0.9620500407893233,0.0
1077,1077,0.7526261696859824,0.8,0,439.0,920.0,0.0,441.0,1,0.15988017589849157,0.0
1078,1078,-0.1487253576296621,-0.1,1,394.0,725.0,1.0,401.0,1,0.3169604445387725,0.0
1079,1079,0.05350715191886213,0.1,0,373.0,758.0,0.0,449.0,1,0.14091343831639203,0.0
1080,1080,-0.030179923306772993,-0.0,1,287.0,611.0,1.0,642.0,1,0.05679507309637277,0.0
1081,1081,0.3410231995258308,0.3,0,398.0,966.0,0.0,256.0,1,0.8330445409316716,0.0
1082,1082,0.3184555340161688,0.3,0,262.0,935.0,0.0,293.0,1,0.5651164778243758,0.0
1083,1083,-0.7215622590800379,-0.7,1,327.0,600.0,1.0,193.0,1,0.5727260618567307,0.0
1084,1084,-0.9344776514451023,-0.9,1,354.0,889.0,1.0,167.0,1,0.18224861760564082,0.0
1085,1085,-0.9620217340851864,-1.0,1,320.0,865.0,1.0,215.0,1,0.9657808683262065,0.0
1086,1086,0.7230534931020987,0.7,0,324.0,670.0,0.0,196.0,1,0.7396040198038327,0.0
1087,1087,0.06951709650755156,0.1,0,333.0,832.0,0.0,405.0,1,0.26964490335788605,0.0
1088,1088,-0.7050506461096608,-0.7,1,301.0,691.0,1.0,258.0,1,0.9030664416956197,0.0
1089,1089,-0.565486986639743,-0.6,1,450.0,653.0,1.0,277.0,1,0.04414081742225495,0.0
1090,1090,0.15379518434998762,0.2,0,394.0,799.0,0.0,307.0,1,0.6664050580163883,0.0
1091,1091,0.31159020108525626,0.3,0,321.0,748.0,0.0,461.0,1,0.11914291075226047,0.0
1092,1092,0.6745509596418369,0.7,0,334.0,836.0,0.0,350.0,1,0.058450169446854994,0.0
1093,1093,0.039627738555620295,0.0,0,277.0,897.0,0.0,1726.0,1,0.5444269701140028,0.0
1094,1094,0.174157590251101,0.2,0,414.0,808.0,0.0,268.0,1,0.3365449181300282,0.0
1095,1095,0.8278437802279353,0.8,0,449.0,919.0,0.0,242.0,1,0.40154218554912835,0.0
1096,1096,-0.09445629127511501,-0.1,1,433.0,581.0,0.0,956.0,0,0.873873858212953,0.0
1097,1097,0.9315680761853407,0.9,0,407.0,987.0,0.0,216.0,1,0.8828809620280968,0.0
1098,1098,0.38664553070809715,0.4,0,347.0,949.0,0.0,404.0,1,0.11618015250690972,0.0
1099,1099,0.063132239809502,0.1,0,403.0,658.0,0.0,379.0,1,0.5830219532575668,0.0
1100,1100,0.45225871585569455,0.5,0,459.0,782.0,0.0,409.0,1,0.8371695923079757,0.0
1101,1101,0.004650647763847715,0.0,0,440.0,909.0,1.0,541.0,0,0.88352201061596,0.0
1102,1102,-0.40907777736976536,-0.4,1,474.0,880.0,1.0,306.0,1,0.7075867766571363,0.0
1103,1103,0.6935086561717616,0.7,0,416.0,746.0,0.0,168.0,1,0.9937773931603928,0.0
1104,1104,0.5089763802072893,0.5,0,253.0,594.0,0.0,263.0,1,0.14590372935337237,0.0
1105,1105,-0.3687221486459804,-0.4,1,324.0,800.0,1.0,406.0,1,0.5373279633040448,0.0
1106,1106,0.21487144558245386,0.2,0,319.0,884.0,0.0,417.0,1,0.40480008726479033,0.0
1107,1107,0.44004724984878596,0.4,0,261.0,800.0,0.0,449.0,1,0.4015981590349237,0.0
1108,1108,-0.3988400289534295,-0.4,1,456.0,868.0,1.0,306.0,1,0.2354115844647836,0.0
1109,1109,0.7021994773248899,0.7,0,439.0,736.0,0.0,205.0,1,0.2313711876469039,0.0
1110,1110,0.7328533700594941,0.7,0,375.0,848.0,0.0,227.0,1,0.2906601041433897,0.0
1111,1111,0.8369887841802146,0.8,0,381.0,685.0,0.0,174.0,1,0.6461817529568201,0.0
1112,1112,0.5622845121847344,0.6,0,408.0,720.0,0.0,302.0,1,0.7473981914883738,0.0
1113,1113,0.9026526567490396,0.9,0,452.0,621.0,0.0,167.0,1,0.20989484033041705,0.0
1114,1114,0.6561631080514987,0.7,0,251.0,638.0,0.0,361.0,1,0.09934593074165621,0.0
1115,1115,0.9026662183566732,0.9,0,474.0,812.0,0.0,214.0,1,0.3307687242092924,0.0
1116,1116,-0.19493036941117947,-0.2,1,497.0,707.0,1.0,436.0,1,0.32331744541546636,0.0
1117,1117,-0.5195905877486691,-0.5,1,381.0,605.0,1.0,434.0,1,0.036534875414690804,0.0
1118,1118,0.4542738968572557,0.5,0,323.0,748.0,0.0,209.0,1,0.5717224712066289,0.0
1119,1119,0.3075123616731448,0.3,0,430.0,721.0,0.0,399.0,1,0.34776051241867767,0.0
1120,1120,0.13090400490358456,0.1,0,256.0,787.0,0.0,247.0,1,0.5601552467151966,0.0
1121,1121,0.9872214601225815,1.0,0,265.0,976.0,0.0,309.0,1,0.032488175810897246,0.0
1122,1122,-0.3402376543789152,-0.3,1,414.0,894.0,1.0,282.0,1,0.016260571317867734,0.0
1123,1123,-0.8205240214903318,-0.8,1,456.0,946.0,1.0,328.0,1,0.14089421866960272,0.0
1124,1124,0.1852459341650805,0.2,0,295.0,777.0,0.0,418.0,1,0.4583413378581359,0.0
1125,1125,-0.10281253841774585,-0.1,1,269.0,721.0,1.0,870.0,1,0.49928574158869865,0.0
1126,1126,0.07144593146163314,0.1,0,489.0,677.0,0.0,894.0,1,0.35994116146999233,0.0
1127,1127,-0.74027606963825,-0.7,1,297.0,964.0,1.0,229.0,1,0.7443546500697088,0.0
1128,1128,-0.8907854648875357,-0.9,1,335.0,999.0,1.0,256.0,1,0.7144542054410424,0.0
1129,1129,0.9298755121979962,0.9,0,388.0,567.0,0.0,125.0,1,0.7161319592446476,0.0
1130,1130,-0.5549591065034885,-0.6,1,402.0,532.0,1.0,286.0,1,0.5198983871514916,0.0
1131,1131,0.43414575595916216,0.4,0,497.0,756.0,0.0,117.0,1,0.639498257497578,0.0
1132,1132,-0.44398074170966617,-0.4,1,392.0,525.0,1.0,243.0,1,0.7895675831694565,0.0
1133,1133,-0.6798511664496705,-0.7,1,406.0,795.0,1.0,309.0,1,0.49689512662224133,0.0
1134,1134,-0.01652108267117436,-0.0,1,267.0,971.0,0.0,212.0,0,0.5008023378919747,0.0
1135,1135,-0.7749183988057418,-0.8,1,495.0,811.0,1.0,304.0,1,0.1211190956877719,0.0
1136,1136,-0.9181700111279951,-0.9,1,441.0,834.0,1.0,165.0,1,0.3909784528596164,0.0
1137,1137,0.7960555185099123,0.8,0,425.0,599.0,0.0,296.0,1,0.9784558789192115,0.0
1138,1138,-0.5199406432740241,-0.5,1,469.0,873.0,1.0,198.0,1,0.41501713917249206,0.0
1139,1139,-0.6903542095754216,-0.7,1,392.0,586.0,1.0,292.0,1,0.8359965247096373,0.0
1140,1140,0.9761978135743974,1.0,0,357.0,569.0,0.0,334.0,1,0.41900714739087297,0.0
1141,1141,0.19096425924711502,0.2,0,381.0,801.0,0.0,228.0,1,0.9037306972377765,0.0
1142,1142,-0.46127548487290126,-0.5,1,432.0,946.0,1.0,432.0,1,0.6339088315886212,0.0
1143,1143,0.28145162227450005,0.3,0,308.0,696.0,0.0,236.0,1,0.4591657520794227,0.0
1144,1144,0.052062675534825686,0.1,0,252.0,634.0,0.0,1284.0,1,0.6273238065948618,0.0
1145,1145,0.1961283294864713,0.2,0,457.0,529.0,0.0,194.0,1,0.9473121554227439,0.0
1146,1146,0.5401837318996054,0.5,0,357.0,893.0,0.0,290.0,1,0.982667121770123,0.0
1147,1147,0.20744564667150045,0.2,0,356.0,668.0,0.0,356.0,1,0.4324150812087286,0.0
1148,1148,-0.6192685976023027,-0.6,1,280.0,909.0,1.0,311.0,1,0.05625543578405168,0.0
1149,1149,-0.12604360040889295,-0.1,1,332.0,989.0,1.0,1329.0,1,0.8435064973750842,0.0
1150,1150,0.3188316155164599,0.3,0,375.0,977.0,0.0,298.0,1,0.07943147317506172,0.0
1151,1151,0.1759869038512174,0.2,0,472.0,951.0,0.0,447.0,1,0.6186941924871758,0.0
1152,1152,-0.619704911782671,-0.6,1,415.0,526.0,1.0,179.0,1,0.41825949807414375,0.0
1153,1153,0.5787126260506326,0.6,0,372.0,869.0,0.0,209.0,1,0.4650923621083298,0.0
1154,1154,-0.6917565955482128,-0.7,1,488.0,571.0,1.0,241.0,1,0.004803212724183714,0.0
1155,1155,-0.15106618792322313,-0.2,1,456.0,578.0,1.0,336.0,1,0.3699842758953309,0.0
1156,1156,0.9649738246750106,1.0,0,382.0,720.0,0.0,268.0,1,0.16213824006350996,0.0
1157,1157,0.5197213357536672,0.5,0,276.0,522.0,0.0,292.0,1,0.078269847732096,0.0
1158,1158,0.5386606253255384,0.5,0,255.0,909.0,0.0,246.0,1,0.11108077204780409,0.0
1159,1159,-0.28444046253098043,-0.3,1,337.0,523.0,1.0,350.0,1,0.8414699984061975,0.0
1160,1160,-0.5941591472491277,-0.6,1,493.0,814.0,1.0,153.0,1,0.5878377677684598,0.0
1161,1161,-0.4403364804921315,-0.4,1,336.0,630.0,1.0,354.0,1,0.9314045044299513,0.0
1162,1162,0.15122937913552192,0.2,0,477.0,530.0,0.0,463.0,1,0.5192373084936748,0.0
1163,1163,-0.3339774781774538,-0.3,1,272.0,744.0,1.0,234.0,1,0.17671568313351194,0.0
1164,1164,-0.46949760889742165,-0.5,1,341.0,934.0,1.0,365.0,1,0.09013024991291851,0.0
1165,1165,-0.7094955545682375,-0.7,1,470.0,719.0,1.0,251.0,1,0.4345363483548611,0.0
1166,1166,0.05261508191942332,0.1,0,380.0,785.0,0.0,795.0,1,0.9470356071973889,0.0
1167,1167,-0.3576488387252461,-0.4,1,488.0,849.0,1.0,333.0,1,0.650537474352357,0.0
1168,1168,-0.062356724959784726,-0.1,1,271.0,749.0,0.0,360.0,0,0.7665331471789725,0.0
1169,1169,0.146526628235762,0.1,0,365.0,998.0,0.0,1667.0,1,0.15742207471314973,0.0
1170,1170,0.1112626546712625,0.1,0,460.0,631.0,0.0,429.0,1,0.7346914822350686,0.0
1171,1171,-0.8259718147731774,-0.8,1,292.0,639.0,1.0,399.0,1,0.324487953340417,0.0
1172,1172,0.8135474456136638,0.8,0,431.0,618.0,0.0,331.0,1,0.3679177185343788,0.0
1173,1173,-0.4616004401277216,-0.5,1,325.0,774.0,1.0,371.0,1,0.09087594762334616,0.0
1174,1174,0.7776168707357298,0.8,0,325.0,975.0,0.0,190.0,1,0.5988795431911577,0.0
1175,1175,0.9316782303329787,0.9,0,488.0,862.0,0.0,240.0,1,0.49654115972823276,0.0
1176,1176,-0.10540278440182793,-0.1,1,430.0,945.0,1.0,365.0,1,0.3731178776581374,0.0
1177,1177,-0.9584090059097661,-1.0,1,396.0,873.0,1.0,211.0,1,0.2024124085915343,0.0
1178,1178,-0.39877451570919464,-0.4,1,417.0,876.0,1.0,637.0,1,0.032117169299185844,0.0
1179,1179,-0.6044022288908313,-0.6,1,252.0,727.0,1.0,451.0,1,0.8019944394354879,0.0
1180,1180,0.5917351733651608,0.6,0,465.0,799.0,0.0,276.0,1,0.5157395138412191,0.0
1181,1181,-0.2923499349298504,-0.3,1,286.0,576.0,1.0,478.0,1,0.21640800397779936,0.0
1182,1182,-0.8761355434747171,-0.9,1,425.0,827.0,1.0,178.0,1,0.4196338069978395,0.0
1183,1183,-0.39067913340535565,-0.4,1,336.0,680.0,1.0,304.0,1,0.4026939201056269,0.0
1184,1184,0.43178808708622984,0.4,0,295.0,557.0,0.0,378.0,1,0.8344239999792011,0.0
1185,1185,-0.13844632014735292,-0.1,1,288.0,633.0,1.0,1239.0,1,0.6940784092425251,0.0
1186,1186,-0.08862120911320837,-0.1,1,350.0,677.0,1.0,613.0,1,0.07638073603324136,0.0
1187,1187,0.003147500075230125,0.0,0,259.0,774.0,1.0,227.0,0,0.9577427997489445,0.0
1188,1188,0.37621190562573803,0.4,0,253.0,574.0,0.0,313.0,1,0.5560272217620551,0.0
1189,1189,-0.4675632933232827,-0.5,1,473.0,731.0,1.0,636.0,1,0.19215372544767717,0.0
1190,1190,-0.47079874872546656,-0.5,1,449.0,684.0,1.0,327.0,1,0.552202816262984,0.0
1191,1191,-0.10564676808073692,-0.1,1,268.0,528.0,1.0,1184.0,1,0.015344197890697076,0.0
1192,1192,-0.8230825568708253,-0.8,1,316.0,565.0,1.0,259.0,1,0.3200769165857401,0.0
1193,1193,0.23875440708051765,0.2,0,462.0,924.0,0.0,334.0,1,0.2192971754139108,0.0
1194,1194,-0.006888675324055127,-0.0,1,444.0,756.0,0.0,490.0,0,0.7268900276783122,0.0
1195,1195,-0.9373370515573232,-0.9,1,307.0,568.0,1.0,305.0,1,0.3274893460421616,0.0
1196,1196,0.1615989181144124,0.2,0,261.0,822.0,0.0,487.0,1,0.10602130816482436,0.0
1197,1197,0.9900205031891578,1.0,0,429.0,538.0,0.0,203.0,1,0.36707271022453636,0.0
1198,1198,0.7615439484610365,0.8,0,424.0,566.0,0.0,240.0,1,0.616408822548954,0.0
1199,1199,-0.4443137410925262,-0.4,1,256.0,613.0,1.0,331.0,1,0.8995284652450912,0.0
1200,1200,0.7829733653293753,0.8,0,296.0,894.0,0.0,280.0,1,0.9543730062093401,0.0
1201,1201,0.311767436873879,0.3,0,452.0,749.0,0.0,329.0,1,0.4323076097030806,0.0
1202,1202,0.17840265546581446,0.2,0,282.0,537.0,0.0,541.0,1,0.5793503559726885,0.0
1203,1203,-0.8870182940069948,-0.9,1,437.0,798.0,1.0,235.0,1,0.37338050324766425,0.0
1204,1204,0.42554771364923716,0.4,0,302.0,840.0,0.0,258.0,1,0.3102187544378746,0.0
1205,1205,-0.885681773603034,-0.9,1,325.0,975.0,1.0,200.0,1,0.465096614282861,0.0
1206,1206,-0.02002058608685031,-0.0,1,331.0,855.0,0.0,414.0,0,0.8952581342065163,0.0
1207,1207,-0.9040005140574339,-0.9,1,342.0,903.0,1.0,225.0,1,0.2728758668533603,0.0
1208,1208,0.3998027882374209,0.4,0,372.0,850.0,0.0,278.0,1,0.8268807032280879,0.0
1209,1209,-0.055774485501909776,-0.1,1,438.0,747.0,1.0,395.0,1,0.9761171464382103,0.0
1210,1210,-0.9559021633489551,-1.0,1,494.0,663.0,1.0,153.0,1,0.9919862556388505,0.0
1211,1211,0.5115898271714137,0.5,0,325.0,741.0,0.0,164.0,1,0.5511681921840473,0.0
1212,1212,0.6787775315688973,0.7,0,437.0,569.0,0.0,164.0,1,0.31320003324790135,0.0
1213,1213,-0.4297628763005594,-0.4,1,471.0,631.0,1.0,338.0,1,0.2984501834481329,0.0
1214,1214,-0.8031112487612106,-0.8,1,358.0,897.0,1.0,185.0,1,0.481055116565842,0.0
1215,1215,0.27990886883619903,0.3,0,409.0,590.0,0.0,281.0,1,0.5111866556762765,0.0
1216,1216,0.06979455436532644,0.1,0,350.0,566.0,0.0,224.0,1,0.7513574276647077,0.0
1217,1217,0.6750270516409498,0.7,0,423.0,979.0,0.0,188.0,1,0.595335475702382,0.0
1218,1218,-0.16101265881041038,-0.2,1,412.0,809.0,1.0,259.0,1,0.6058977818150358,0.0
1219,1219,0.2372622930279782,0.2,0,329.0,718.0,0.0,613.0,1,0.08662184051814148,0.0
