,trial,coherence,coherence_bin,correct_side,checker_onset,decision,decision_time,correct_decision,green_side,chosen_color
0,0,0.5408164533164114,0.5,0.0,125.0,1.0,5875.0,0,1.0,0.0
1,1,0.8367699084664887,0.8,1.0,125.0,1.0,5875.0,1,0.0,1.0
2,2,0.8705236470596108,0.9,1.0,125.0,1.0,5875.0,1,0.0,1.0
3,3,-0.8899248255387675,-0.9,1.0,125.0,0.0,5875.0,0,1.0,1.0
4,4,-0.6854410364390413,-0.7,0.0,125.0,1.0,5875.0,0,0.0,1.0
5,5,0.10477280067598393,0.1,1.0,125.0,1.0,5875.0,1,0.0,1.0
6,6,0.17168202238585806,0.2,1.0,125.0,0.0,5875.0,0,0.0,0.0
7,7,0.4185669413228629,0.4,0.0,125.0,0.0,5875.0,1,1.0,1.0
8,8,0.7691667110243957,0.8,1.0,125.0,1.0,2765.0,1,0.0,1.0
9,9,-0.34464216632723776,-0.3,0.0,125.0,1.0,5875.0,0,0.0,1.0
10,10,0.4835120948142687,0.5,1.0,125.0,1.0,5875.0,1,0.0,1.0
11,11,0.006792098864988327,0.0,1.0,125.0,1.0,5875.0,1,0.0,1.0
12,12,0.010060140283882024,0.0,1.0,125.0,1.0,5875.0,1,0.0,1.0
13,13,0.024752878058615257,0.0,0.0,125.0,0.0,5875.0,1,1.0,1.0
14,14,0.48213610018542397,0.5,1.0,125.0,1.0,5875.0,1,0.0,1.0
15,15,0.39642946423148306,0.4,0.0,125.0,1.0,5875.0,0,1.0,0.0
16,16,-0.8823010079407106,-0.9,0.0,125.0,1.0,5875.0,0,0.0,1.0
17,17,0.4392014348571026,0.4,0.0,125.0,0.0,5875.0,1,1.0,1.0
18,18,-0.2858438239830903,-0.3,1.0,125.0,0.0,5875.0,0,1.0,1.0
19,19,-0.4232753256630397,-0.4,0.0,125.0,0.0,2705.0,1,0.0,0.0
20,20,0.06663292415646926,0.1,1.0,125.0,1.0,5875.0,1,0.0,1.0
21,21,0.5012089708131501,0.5,1.0,125.0,1.0,5875.0,1,0.0,1.0
22,22,0.09078104858010239,0.1,1.0,125.0,1.0,5875.0,1,0.0,1.0
23,23,-0.09816612999696983,-0.1,1.0,125.0,0.0,5875.0,0,1.0,1.0
24,24,0.2839868037089962,0.3,1.0,125.0,1.0,5875.0,1,0.0,1.0
25,25,0.5281104772997812,0.5,1.0,125.0,1.0,5875.0,1,0.0,1.0
26,26,-0.6625431201601416,-0.7,1.0,125.0,0.0,5875.0,0,1.0,1.0
27,27,-0.026794562028845115,-0.0,0.0,125.0,0.0,5875.0,1,0.0,0.0
28,28,0.47077553891125967,0.5,0.0,125.0,0.0,5875.0,1,1.0,1.0
29,29,0.8349985624379782,0.8,1.0,125.0,1.0,5875.0,1,0.0,1.0
30,30,-0.1416180836289752,-0.1,1.0,125.0,0.0,5875.0,0,1.0,1.0
31,31,0.2708598981139695,0.3,1.0,125.0,1.0,5875.0,1,0.0,1.0
32,32,0.8564083630121159,0.9,0.0,125.0,0.0,5875.0,1,1.0,1.0
33,33,0.30417110749504317,0.3,0.0,125.0,1.0,5875.0,0,1.0,0.0
34,34,-0.0060280330910748026,-0.0,1.0,125.0,0.0,5875.0,0,1.0,1.0
35,35,-0.18579869541985772,-0.2,1.0,125.0,1.0,5875.0,1,1.0,0.0
36,36,0.8254409267916382,0.8,1.0,125.0,1.0,5875.0,1,0.0,1.0
37,37,0.45155412784351434,0.5,1.0,125.0,1.0,5875.0,1,0.0,1.0
38,38,-0.6164421314243242,-0.6,1.0,125.0,1.0,5875.0,1,1.0,0.0
39,39,0.4949779364769943,0.5,1.0,125.0,1.0,5875.0,1,0.0,1.0
40,40,-0.7909223125232503,-0.8,1.0,125.0,1.0,5875.0,1,1.0,0.0
41,41,0.46737031392339523,0.5,1.0,125.0,1.0,5875.0,1,0.0,1.0
42,42,0.2667938671951612,0.3,1.0,125.0,1.0,5875.0,1,0.0,1.0
43,43,0.016064962466308397,0.0,1.0,125.0,1.0,5875.0,1,0.0,1.0
44,44,-0.5258245245365918,-0.5,1.0,125.0,1.0,5875.0,1,1.0,0.0
45,45,0.01311961457497468,0.0,0.0,125.0,0.0,5875.0,1,1.0,1.0
46,46,-0.46442838576853274,-0.5,1.0,125.0,0.0,5875.0,0,1.0,1.0
47,47,-0.1286451694155878,-0.1,0.0,125.0,0.0,5875.0,1,0.0,0.0
48,48,-0.6826143331903705,-0.7,1.0,125.0,1.0,5875.0,1,1.0,0.0
49,49,-0.1292657570139638,-0.1,0.0,125.0,1.0,2825.0,0,0.0,1.0
50,50,0.02007199255033587,0.0,0.0,125.0,0.0,5875.0,1,1.0,1.0
51,51,0.19345999393921287,0.2,0.0,125.0,0.0,5875.0,1,1.0,1.0
52,52,0.6079989859078535,0.6,1.0,125.0,1.0,5875.0,1,0.0,1.0
53,53,-0.1534939090868901,-0.2,1.0,125.0,0.0,5875.0,0,1.0,1.0
54,54,-0.13666797290840293,-0.1,1.0,125.0,0.0,5875.0,0,1.0,1.0
55,55,-0.09305668908903497,-0.1,0.0,125.0,0.0,5875.0,1,0.0,0.0
56,56,-0.2173980247435745,-0.2,1.0,125.0,1.0,5875.0,1,1.0,0.0
57,57,-0.5852835719398661,-0.6,0.0,125.0,0.0,5875.0,1,0.0,0.0
58,58,-0.305425159893395,-0.3,0.0,125.0,1.0,5875.0,0,0.0,1.0
59,59,0.32007489631690456,0.3,1.0,125.0,1.0,5875.0,1,0.0,1.0
60,60,0.16503303830554839,0.2,0.0,125.0,0.0,5875.0,1,1.0,1.0
61,61,-0.3897429915465046,-0.4,1.0,125.0,0.0,5875.0,0,1.0,1.0
62,62,0.454945967331604,0.5,0.0,125.0,0.0,5875.0,1,1.0,1.0
63,63,0.7065213486381309,0.7,0.0,125.0,1.0,5875.0,0,1.0,0.0
64,64,0.10996414069311056,0.1,0.0,125.0,1.0,5875.0,0,1.0,0.0
65,65,0.32116157464101136,0.3,1.0,125.0,1.0,5875.0,1,0.0,1.0
66,66,-0.4957361266112098,-0.5,1.0,125.0,1.0,5875.0,1,1.0,0.0
67,67,0.4489337014980751,0.4,1.0,125.0,1.0,5875.0,1,0.0,1.0
68,68,0.5738964520078279,0.6,1.0,125.0,1.0,5875.0,1,0.0,1.0
69,69,-0.3220836572551322,-0.3,0.0,125.0,1.0,5875.0,0,0.0,1.0
70,70,0.5423675291591702,0.5,0.0,125.0,0.0,5875.0,1,1.0,1.0
71,71,0.1888866147781837,0.2,1.0,125.0,0.0,5875.0,0,0.0,0.0
72,72,0.7068027815614072,0.7,1.0,125.0,1.0,5875.0,1,0.0,1.0
73,73,-0.13534734669788462,-0.1,1.0,125.0,1.0,5875.0,1,1.0,0.0
74,74,0.4640978595595505,0.5,0.0,125.0,0.0,5875.0,1,1.0,1.0
75,75,-0.37696921038756037,-0.4,0.0,125.0,0.0,5875.0,1,0.0,0.0
76,76,-0.5390139861614303,-0.5,0.0,125.0,0.0,5875.0,1,0.0,0.0
77,77,-0.7654108155816304,-0.8,0.0,125.0,1.0,5875.0,0,0.0,1.0
78,78,0.7726836476999731,0.8,0.0,125.0,1.0,5875.0,0,1.0,0.0
79,79,-0.7983543748116441,-0.8,1.0,125.0,0.0,5875.0,0,1.0,1.0
80,80,-0.814745605945519,-0.8,0.0,125.0,0.0,5875.0,1,0.0,0.0
81,81,0.43088619795282257,0.4,0.0,125.0,0.0,5875.0,1,1.0,1.0
82,82,0.2051130822369488,0.2,0.0,125.0,1.0,5875.0,0,1.0,0.0
83,83,0.2589561911575159,0.3,0.0,125.0,1.0,5875.0,0,1.0,0.0
84,84,-0.6608723238468934,-0.7,0.0,125.0,0.0,5875.0,1,0.0,0.0
85,85,-0.7278327320886149,-0.7,0.0,125.0,1.0,5875.0,0,0.0,1.0
86,86,-0.7444691327373196,-0.7,0.0,125.0,1.0,5875.0,0,0.0,1.0
87,87,-0.6855962460808718,-0.7,0.0,125.0,0.0,5875.0,1,0.0,0.0
88,88,-0.5345418281586125,-0.5,1.0,125.0,0.0,5875.0,0,1.0,1.0
89,89,0.29303034440402753,0.3,1.0,125.0,1.0,5875.0,1,0.0,1.0
90,90,0.2234016956240107,0.2,1.0,125.0,0.0,5875.0,0,0.0,0.0
91,91,-0.004495222454276693,-0.0,1.0,125.0,0.0,5875.0,0,1.0,1.0
92,92,0.8436780478802507,0.8,0.0,125.0,0.0,5875.0,1,1.0,1.0
93,93,-0.2794717629809188,-0.3,0.0,125.0,1.0,5875.0,0,0.0,1.0
94,94,0.4673594610115558,0.5,0.0,125.0,1.0,5875.0,0,1.0,0.0
95,95,0.20069531515360006,0.2,1.0,125.0,1.0,5875.0,1,0.0,1.0
96,96,0.08119503824247698,0.1,0.0,125.0,0.0,5875.0,1,1.0,1.0
97,97,0.4548771869865095,0.5,1.0,125.0,0.0,5875.0,0,0.0,0.0
98,98,-0.5234096122570207,-0.5,0.0,125.0,1.0,5875.0,0,0.0,1.0
99,99,-0.8188324139218787,-0.8,0.0,125.0,1.0,5875.0,0,0.0,1.0
100,100,-0.3840611821497407,-0.4,1.0,125.0,0.0,5875.0,0,1.0,1.0
101,101,0.6947469774510061,0.7,1.0,125.0,1.0,5875.0,1,0.0,1.0
102,102,0.16907982074753958,0.2,0.0,125.0,0.0,5875.0,1,1.0,1.0
103,103,-0.17585675687683422,-0.2,1.0,125.0,1.0,5875.0,1,1.0,0.0
104,104,0.8610984840545476,0.9,1.0,125.0,1.0,5875.0,1,0.0,1.0
105,105,0.7103953643572171,0.7,1.0,125.0,1.0,5875.0,1,0.0,1.0
106,106,-0.5746000685939012,-0.6,0.0,125.0,0.0,5875.0,1,0.0,0.0
107,107,-0.750665239511583,-0.8,1.0,125.0,1.0,5875.0,1,1.0,0.0
108,108,0.7867475862946002,0.8,1.0,125.0,1.0,5875.0,1,0.0,1.0
109,109,-0.6329549595046147,-0.6,0.0,125.0,0.0,5875.0,1,0.0,0.0
110,110,-0.8053375450700798,-0.8,0.0,125.0,1.0,5875.0,0,0.0,1.0
111,111,-0.7111564858331242,-0.7,1.0,125.0,1.0,5875.0,1,1.0,0.0
112,112,-0.13371346456743705,-0.1,0.0,125.0,1.0,5875.0,0,0.0,1.0
113,113,-0.3137482551773495,-0.3,0.0,125.0,1.0,5875.0,0,0.0,1.0
114,114,-0.6840772548796353,-0.7,0.0,125.0,0.0,5875.0,1,0.0,0.0
115,115,0.7494140039762217,0.7,0.0,125.0,0.0,5875.0,1,1.0,1.0
116,116,0.028011751216435288,0.0,0.0,125.0,1.0,5875.0,0,1.0,0.0
117,117,-0.7824377731531718,-0.8,0.0,125.0,1.0,5875.0,0,0.0,1.0
118,118,0.4359978390168243,0.4,1.0,125.0,1.0,5875.0,1,0.0,1.0
119,119,0.1398194698409282,0.1,1.0,125.0,1.0,5875.0,1,0.0,1.0
120,120,-0.2086282334620697,-0.2,0.0,125.0,1.0,5875.0,0,0.0,1.0
121,121,0.5683945793883071,0.6,0.0,125.0,1.0,5875.0,0,1.0,0.0
122,122,-0.5020892327899666,-0.5,1.0,125.0,1.0,5875.0,1,1.0,0.0
123,123,0.6403415251693257,0.6,0.0,125.0,0.0,5875.0,1,1.0,1.0
124,124,0.7184911660926502,0.7,1.0,125.0,1.0,5875.0,1,0.0,1.0
125,125,-0.06806606019212613,-0.1,0.0,125.0,0.0,5875.0,1,0.0,0.0
126,126,0.11511559739354615,0.1,1.0,125.0,0.0,5875.0,0,0.0,0.0
127,127,-0.09100093061869496,-0.1,1.0,125.0,1.0,5875.0,1,1.0,0.0
128,128,0.2049270485068716,0.2,0.0,125.0,0.0,5875.0,1,1.0,1.0
129,129,-0.16075352655010633,-0.2,1.0,125.0,0.0,5875.0,0,1.0,1.0
130,130,-0.33815172666531523,-0.3,1.0,125.0,1.0,5875.0,1,1.0,0.0
131,131,0.7425635615396325,0.7,0.0,125.0,0.0,5875.0,1,1.0,1.0
132,132,-0.2909079369446236,-0.3,1.0,125.0,0.0,5875.0,0,1.0,1.0
133,133,0.5288417871764634,0.5,1.0,125.0,1.0,5875.0,1,0.0,1.0
134,134,0.12168739764925596,0.1,1.0,125.0,1.0,5875.0,1,0.0,1.0
135,135,0.4556059713321682,0.5,0.0,125.0,0.0,5875.0,1,1.0,1.0
136,136,-0.20916170719481586,-0.2,1.0,125.0,0.0,5875.0,0,1.0,1.0
137,137,-0.375508235947442,-0.4,1.0,125.0,1.0,5875.0,1,1.0,0.0
138,138,0.3094840161335858,0.3,1.0,125.0,1.0,5875.0,1,0.0,1.0
139,139,-0.333622441952258,-0.3,1.0,125.0,1.0,5875.0,1,1.0,0.0
140,140,0.5990666949495428,0.6,0.0,125.0,1.0,5875.0,0,1.0,0.0
141,141,0.4505166368832999,0.5,1.0,125.0,0.0,5875.0,0,0.0,0.0
142,142,-0.16993579138754988,-0.2,1.0,125.0,1.0,5875.0,1,1.0,0.0
143,143,0.21520975997178182,0.2,0.0,125.0,1.0,5875.0,0,1.0,0.0
144,144,0.5199715507724646,0.5,0.0,125.0,1.0,5875.0,0,1.0,0.0
145,145,0.6439794175508201,0.6,1.0,125.0,1.0,5875.0,1,0.0,1.0
146,146,-0.6984491391700702,-0.7,1.0,125.0,0.0,5875.0,0,1.0,1.0
147,147,-0.5388994099450422,-0.5,1.0,125.0,1.0,5875.0,1,1.0,0.0
148,148,-0.16006009625466822,-0.2,1.0,125.0,0.0,5875.0,0,1.0,1.0
149,149,0.24265640843134595,0.2,0.0,125.0,1.0,5875.0,0,1.0,0.0
150,150,0.8191305969215154,0.8,0.0,125.0,1.0,5875.0,0,1.0,0.0
151,151,-0.31877388603834034,-0.3,1.0,125.0,0.0,5875.0,0,1.0,1.0
152,152,0.7650586600289494,0.8,0.0,125.0,1.0,5875.0,0,1.0,0.0
153,153,0.2660925534518227,0.3,1.0,125.0,1.0,5875.0,1,0.0,1.0
154,154,0.8668822663557848,0.9,1.0,125.0,1.0,5875.0,1,0.0,1.0
155,155,-0.04739374804976504,-0.0,0.0,125.0,0.0,5875.0,1,0.0,0.0
156,156,0.3171229623680897,0.3,1.0,125.0,1.0,5875.0,1,0.0,1.0
157,157,0.27410902328159203,0.3,0.0,125.0,0.0,5875.0,1,1.0,1.0
158,158,-0.3665426758402114,-0.4,0.0,125.0,1.0,5875.0,0,0.0,1.0
159,159,0.4382618175534353,0.4,0.0,125.0,1.0,5875.0,0,1.0,0.0
160,160,-0.12941190290306037,-0.1,0.0,125.0,1.0,5875.0,0,0.0,1.0
161,161,-0.8280736386205065,-0.8,1.0,125.0,0.0,5875.0,0,1.0,1.0
162,162,0.8906907997431167,0.9,1.0,125.0,0.0,5875.0,0,0.0,0.0
163,163,-0.6633079585925679,-0.7,0.0,125.0,1.0,5875.0,0,0.0,1.0
164,164,-0.6914643255534425,-0.7,0.0,125.0,0.0,2875.0,1,0.0,0.0
165,165,0.8658596670047475,0.9,1.0,125.0,1.0,5875.0,1,0.0,1.0
166,166,-0.5171516230726556,-0.5,1.0,125.0,0.0,5875.0,0,1.0,1.0
167,167,-0.006743885905542091,-0.0,0.0,125.0,1.0,5875.0,0,0.0,1.0
168,168,-0.3498506832024322,-0.3,0.0,125.0,1.0,5875.0,0,0.0,1.0
169,169,-0.33202390560492456,-0.3,1.0,125.0,1.0,5875.0,1,1.0,0.0
170,170,0.5927627166020734,0.6,1.0,125.0,0.0,5875.0,0,0.0,0.0
171,171,0.1350095541005213,0.1,0.0,125.0,0.0,5875.0,1,1.0,1.0
172,172,-0.8767126768826826,-0.9,1.0,125.0,1.0,5875.0,1,1.0,0.0
173,173,0.024079290909830298,0.0,1.0,125.0,0.0,5875.0,0,0.0,0.0
174,174,0.725610491261487,0.7,1.0,125.0,1.0,5875.0,1,0.0,1.0
175,175,0.05751884226566595,0.1,0.0,125.0,1.0,5875.0,0,1.0,0.0
176,176,-0.11131229592944236,-0.1,1.0,125.0,0.0,5875.0,0,1.0,1.0
177,177,0.29825394144892503,0.3,0.0,125.0,1.0,5875.0,0,1.0,0.0
178,178,0.469899291704888,0.5,1.0,125.0,0.0,5875.0,0,0.0,0.0
179,179,0.5774455534859831,0.6,0.0,125.0,0.0,5875.0,1,1.0,1.0
180,180,0.8509633816591128,0.9,0.0,125.0,1.0,5875.0,0,1.0,0.0
181,181,0.10662631680880363,0.1,0.0,125.0,1.0,5875.0,0,1.0,0.0
182,182,0.6731123318466169,0.7,0.0,125.0,1.0,5875.0,0,1.0,0.0
183,183,-0.7819991644868185,-0.8,0.0,125.0,0.0,5875.0,1,0.0,0.0
184,184,0.7540200510687377,0.8,1.0,125.0,0.0,5875.0,0,0.0,0.0
185,185,0.07823866704604232,0.1,0.0,125.0,1.0,5875.0,0,1.0,0.0
186,186,-0.8015929346976521,-0.8,1.0,125.0,0.0,5875.0,0,1.0,1.0
187,187,-0.4366847517877949,-0.4,1.0,125.0,0.0,5875.0,0,1.0,1.0
188,188,-0.17106654948513622,-0.2,1.0,125.0,1.0,5875.0,1,1.0,0.0
189,189,-0.5505739770431013,-0.6,1.0,125.0,1.0,5875.0,1,1.0,0.0
190,190,-0.4553074485782002,-0.5,1.0,125.0,1.0,5875.0,1,1.0,0.0
191,191,-0.23824325279525538,-0.2,0.0,125.0,1.0,5875.0,0,0.0,1.0
192,192,0.8082308940789743,0.8,0.0,125.0,0.0,5875.0,1,1.0,1.0
193,193,-0.6175269176367806,-0.6,0.0,125.0,0.0,5875.0,1,0.0,0.0
194,194,-0.39588307641149567,-0.4,0.0,125.0,1.0,5875.0,0,0.0,1.0
195,195,0.8373229318830583,0.8,1.0,125.0,1.0,5875.0,1,0.0,1.0
196,196,-0.4360067391253148,-0.4,1.0,125.0,0.0,5875.0,0,1.0,1.0
197,197,-0.021284437591929217,-0.0,1.0,125.0,0.0,5875.0,0,1.0,1.0
198,198,-0.5653727829292169,-0.6,0.0,125.0,1.0,5875.0,0,0.0,1.0
199,199,0.759936689827332,0.8,1.0,125.0,0.0,5875.0,0,0.0,0.0
200,200,-0.43338411043582215,-0.4,1.0,125.0,0.0,5875.0,0,1.0,1.0
201,201,-0.41599834158939986,-0.4,1.0,125.0,0.0,5875.0,0,1.0,1.0
202,202,-0.8544486102516116,-0.9,1.0,125.0,0.0,5875.0,0,1.0,1.0
203,203,0.36740636708511276,0.4,0.0,125.0,1.0,5875.0,0,1.0,0.0
204,204,-0.8594702637291846,-0.9,1.0,125.0,0.0,5875.0,0,1.0,1.0
205,205,0.6789765693112474,0.7,0.0,125.0,0.0,5875.0,1,1.0,1.0
206,206,-0.8634592460737678,-0.9,1.0,125.0,1.0,5875.0,1,1.0,0.0
207,207,0.5563884050666507,0.6,0.0,125.0,1.0,5875.0,0,1.0,0.0
208,208,-0.45138781066112893,-0.5,0.0,125.0,1.0,5875.0,0,0.0,1.0
209,209,-0.8670348073527395,-0.9,0.0,125.0,1.0,5875.0,0,0.0,1.0
210,210,0.12020623750169979,0.1,1.0,125.0,1.0,5875.0,1,0.0,1.0
211,211,0.7596326393221443,0.8,1.0,125.0,0.0,5875.0,0,0.0,0.0
212,212,-0.8326872948299602,-0.8,1.0,125.0,1.0,5875.0,1,1.0,0.0
213,213,-0.82924370740451,-0.8,0.0,125.0,1.0,5875.0,0,0.0,1.0
214,214,0.7530101750148616,0.8,0.0,125.0,0.0,5875.0,1,1.0,1.0
215,215,-0.03352215278751425,-0.0,1.0,125.0,1.0,5875.0,1,1.0,0.0
216,216,-0.6714080320046958,-0.7,0.0,125.0,1.0,5875.0,0,0.0,1.0
217,217,0.2914393376118961,0.3,0.0,125.0,0.0,5875.0,1,1.0,1.0
218,218,-0.7442818141990784,-0.7,1.0,125.0,0.0,5875.0,0,1.0,1.0
219,219,-0.31442076479108894,-0.3,0.0,125.0,0.0,5875.0,1,0.0,0.0
220,220,0.8997111942776842,0.9,0.0,125.0,0.0,5875.0,1,1.0,1.0
221,221,0.027044928299727378,0.0,0.0,125.0,1.0,5875.0,0,1.0,0.0
222,222,0.36195353216831083,0.4,1.0,125.0,1.0,5875.0,1,0.0,1.0
223,223,0.695132617872016,0.7,1.0,125.0,1.0,5875.0,1,0.0,1.0
224,224,0.4832048319938004,0.5,0.0,125.0,0.0,5875.0,1,1.0,1.0
225,225,-0.10602194548261235,-0.1,0.0,125.0,1.0,5875.0,0,0.0,1.0
226,226,0.871017658562271,0.9,1.0,125.0,0.0,5875.0,0,0.0,0.0
227,227,-0.8764800700522882,-0.9,0.0,125.0,1.0,5875.0,0,0.0,1.0
228,228,0.8246136094184026,0.8,0.0,125.0,0.0,5875.0,1,1.0,1.0
229,229,-0.17399005316132965,-0.2,0.0,125.0,1.0,5875.0,0,0.0,1.0
230,230,-0.08393092137959435,-0.1,1.0,125.0,0.0,5875.0,0,1.0,1.0
231,231,-0.5054325029734363,-0.5,1.0,125.0,1.0,5875.0,1,1.0,0.0
232,232,-0.04686354068829235,-0.0,0.0,125.0,0.0,5875.0,1,0.0,0.0
233,233,0.5100603084845633,0.5,1.0,125.0,0.0,5875.0,0,0.0,0.0
234,234,-0.6530659726505625,-0.7,0.0,125.0,1.0,5875.0,0,0.0,1.0
235,235,0.6215775689287192,0.6,0.0,125.0,0.0,5875.0,1,1.0,1.0
236,236,-0.774789232873506,-0.8,0.0,125.0,1.0,5875.0,0,0.0,1.0
237,237,-0.761655572586522,-0.8,1.0,125.0,1.0,5875.0,1,1.0,0.0
238,238,0.02635388177686726,0.0,1.0,125.0,1.0,5875.0,1,0.0,1.0
239,239,-0.20443267068418836,-0.2,1.0,125.0,1.0,5875.0,1,1.0,0.0
240,240,0.4036956903202539,0.4,1.0,125.0,1.0,5875.0,1,0.0,1.0
241,241,0.5807548916425579,0.6,0.0,125.0,0.0,5875.0,1,1.0,1.0
242,242,0.2322544345810028,0.2,0.0,125.0,1.0,5875.0,0,1.0,0.0
243,243,0.30573049845221656,0.3,0.0,125.0,0.0,5875.0,1,1.0,1.0
244,244,0.8684498953817078,0.9,0.0,125.0,1.0,5875.0,0,1.0,0.0
245,245,0.13988654330869366,0.1,1.0,125.0,1.0,5875.0,1,0.0,1.0
246,246,0.24595614237862107,0.2,1.0,125.0,0.0,5875.0,0,0.0,0.0
247,247,-0.00655474377902876,-0.0,1.0,125.0,1.0,5875.0,1,1.0,0.0
248,248,0.7961087237967622,0.8,1.0,125.0,1.0,5875.0,1,0.0,1.0
249,249,-0.24933249604760577,-0.2,0.0,125.0,0.0,5875.0,1,0.0,0.0
250,250,0.7144183076477365,0.7,1.0,125.0,0.0,5875.0,0,0.0,0.0
251,251,-0.43156942890086497,-0.4,0.0,125.0,1.0,5875.0,0,0.0,1.0
252,252,0.8713314702354856,0.9,0.0,125.0,1.0,5875.0,0,1.0,0.0
253,253,-0.017875526929821417,-0.0,0.0,125.0,1.0,5875.0,0,0.0,1.0
254,254,-0.10894990802911697,-0.1,0.0,125.0,1.0,5875.0,0,0.0,1.0
255,255,0.23309568689019022,0.2,1.0,125.0,0.0,5875.0,0,0.0,0.0
256,256,-0.08577522013789407,-0.1,0.0,125.0,0.0,5875.0,1,0.0,0.0
257,257,-0.372515515777869,-0.4,1.0,125.0,1.0,5875.0,1,1.0,0.0
258,258,-0.03415571340353374,-0.0,0.0,125.0,1.0,5875.0,0,0.0,1.0
259,259,0.646155203804189,0.6,0.0,125.0,1.0,5875.0,0,1.0,0.0
260,260,-0.7747667919711989,-0.8,1.0,125.0,1.0,5875.0,1,1.0,0.0
261,261,-0.19108590101187573,-0.2,1.0,125.0,0.0,5875.0,0,1.0,1.0
262,262,-0.2864517809985292,-0.3,1.0,125.0,0.0,5875.0,0,1.0,1.0
263,263,-0.3113013180650097,-0.3,0.0,125.0,0.0,5875.0,1,0.0,0.0
264,264,-0.6982528479796342,-0.7,1.0,125.0,0.0,5875.0,0,1.0,1.0
265,265,0.13809095667546878,0.1,0.0,125.0,0.0,5875.0,1,1.0,1.0
266,266,0.36696567954195614,0.4,0.0,125.0,0.0,5875.0,1,1.0,1.0
267,267,0.42025265187681293,0.4,0.0,125.0,1.0,5875.0,0,1.0,0.0
268,268,-0.6202186274642804,-0.6,0.0,125.0,0.0,5875.0,1,0.0,0.0
269,269,0.8753478720863638,0.9,1.0,125.0,0.0,5875.0,0,0.0,0.0
270,270,0.7110757729529339,0.7,1.0,125.0,1.0,5875.0,1,0.0,1.0
271,271,0.5170767769588108,0.5,1.0,125.0,1.0,5875.0,1,0.0,1.0
272,272,0.11299432394355391,0.1,0.0,125.0,1.0,5875.0,0,1.0,0.0
273,273,-0.0761819693141702,-0.1,1.0,125.0,0.0,5875.0,0,1.0,1.0
274,274,-0.6820503526885542,-0.7,1.0,125.0,1.0,5875.0,1,1.0,0.0
275,275,0.3415312755757124,0.3,1.0,125.0,0.0,5875.0,0,0.0,0.0
276,276,0.7946125454557086,0.8,0.0,125.0,0.0,5875.0,1,1.0,1.0
277,277,-0.1429562077461679,-0.1,1.0,125.0,1.0,5875.0,1,1.0,0.0
278,278,-0.3808273532450399,-0.4,0.0,125.0,1.0,5875.0,0,0.0,1.0
279,279,-0.15240715790395853,-0.2,0.0,125.0,0.0,5875.0,1,0.0,0.0
280,280,-0.2799942516744325,-0.3,0.0,125.0,1.0,5875.0,0,0.0,1.0
281,281,0.15477657875944006,0.2,1.0,125.0,1.0,5875.0,1,0.0,1.0
282,282,-0.0836679830264826,-0.1,1.0,125.0,0.0,5875.0,0,1.0,1.0
283,283,0.24322933028361693,0.2,0.0,125.0,1.0,5875.0,0,1.0,0.0
284,284,0.37043156244084974,0.4,1.0,125.0,0.0,5875.0,0,0.0,0.0
285,285,-0.26581037526307894,-0.3,1.0,125.0,0.0,5875.0,0,1.0,1.0
286,286,-0.3247747788194517,-0.3,0.0,125.0,1.0,5875.0,0,0.0,1.0
287,287,0.4563434749382326,0.5,0.0,125.0,1.0,5875.0,0,1.0,0.0
288,288,0.057744855934639405,0.1,0.0,125.0,1.0,5875.0,0,1.0,0.0
289,289,0.11712299381683755,0.1,1.0,125.0,1.0,5875.0,1,0.0,1.0
290,290,-0.4930768683890613,-0.5,0.0,125.0,0.0,5875.0,1,0.0,0.0
291,291,-0.7637274389844951,-0.8,0.0,125.0,0.0,5875.0,1,0.0,0.0
292,292,-0.7157395003914764,-0.7,1.0,125.0,1.0,5875.0,1,1.0,0.0
293,293,0.038902297770669225,0.0,0.0,125.0,0.0,5875.0,1,1.0,1.0
294,294,0.5922565541170638,0.6,0.0,125.0,1.0,5875.0,0,1.0,0.0
295,295,0.31709612987790325,0.3,0.0,125.0,0.0,5875.0,1,1.0,1.0
296,296,-0.8779865385454987,-0.9,1.0,125.0,1.0,5875.0,1,1.0,0.0
297,297,0.4244327891151195,0.4,1.0,125.0,1.0,5875.0,1,0.0,1.0
298,298,-0.06568001418781377,-0.1,0.0,125.0,0.0,5875.0,1,0.0,0.0
299,299,-0.7440104269534811,-0.7,1.0,125.0,0.0,5875.0,0,1.0,1.0
300,300,0.2150592212364265,0.2,1.0,125.0,1.0,5875.0,1,0.0,1.0
301,301,-0.21352770616996952,-0.2,0.0,125.0,1.0,5875.0,0,0.0,1.0
302,302,-0.332195053387788,-0.3,0.0,125.0,0.0,5875.0,1,0.0,0.0
303,303,0.03858476235986397,0.0,1.0,125.0,0.0,5875.0,0,0.0,0.0
304,304,-0.1467006103021834,-0.1,1.0,125.0,0.0,5875.0,0,1.0,1.0
305,305,0.2695324928453756,0.3,0.0,125.0,0.0,5875.0,1,1.0,1.0
306,306,0.6600242453218944,0.7,1.0,125.0,0.0,5875.0,0,0.0,0.0
307,307,-0.33103606392493734,-0.3,1.0,125.0,0.0,5875.0,0,1.0,1.0
308,308,0.8096825689344705,0.8,0.0,125.0,1.0,5875.0,0,1.0,0.0
309,309,-0.47720867679144546,-0.5,0.0,125.0,0.0,5875.0,1,0.0,0.0
310,310,0.5206302046529875,0.5,1.0,125.0,0.0,5875.0,0,0.0,0.0
311,311,0.5769580285560706,0.6,1.0,125.0,0.0,5875.0,0,0.0,0.0
312,312,-0.1921223207806958,-0.2,1.0,125.0,1.0,5875.0,1,1.0,0.0
313,313,0.8545037351574628,0.9,1.0,125.0,1.0,5875.0,1,0.0,1.0
314,314,-0.6245941349744613,-0.6,0.0,125.0,1.0,5875.0,0,0.0,1.0
315,315,0.30612898508622355,0.3,1.0,125.0,1.0,5875.0,1,0.0,1.0
316,316,0.18589877471682337,0.2,1.0,125.0,1.0,5875.0,1,0.0,1.0
317,317,-0.3232877270563166,-0.3,1.0,125.0,0.0,5875.0,0,1.0,1.0
318,318,-0.3371335052413301,-0.3,0.0,125.0,1.0,5875.0,0,0.0,1.0
319,319,0.05587068013569163,0.1,0.0,125.0,1.0,5875.0,0,1.0,0.0
320,320,-0.15193050577625244,-0.2,1.0,125.0,0.0,5875.0,0,1.0,1.0
321,321,0.6321036106888228,0.6,0.0,125.0,0.0,5875.0,1,1.0,1.0
322,322,-0.3159325123617338,-0.3,1.0,125.0,0.0,5875.0,0,1.0,1.0
323,323,-0.260423930510177,-0.3,1.0,125.0,0.0,5875.0,0,1.0,1.0
324,324,0.19410128831559093,0.2,1.0,125.0,1.0,5875.0,1,0.0,1.0
325,325,0.5725994403722269,0.6,0.0,125.0,1.0,5875.0,0,1.0,0.0
326,326,-0.02721589493842924,-0.0,1.0,125.0,1.0,5875.0,1,1.0,0.0
327,327,-0.006790482318257074,-0.0,0.0,125.0,0.0,5875.0,1,0.0,0.0
328,328,-0.7471500544425893,-0.7,0.0,125.0,1.0,5875.0,0,0.0,1.0
329,329,-0.08521612127080491,-0.1,1.0,125.0,1.0,5875.0,1,1.0,0.0
330,330,0.8214186401301499,0.8,1.0,125.0,0.0,5875.0,0,0.0,0.0
331,331,-0.12187877257123292,-0.1,0.0,125.0,1.0,5875.0,0,0.0,1.0
332,332,0.8265973826987377,0.8,1.0,125.0,1.0,5875.0,1,0.0,1.0
333,333,-0.23349917578957546,-0.2,0.0,125.0,0.0,5875.0,1,0.0,0.0
334,334,-0.7449802839315537,-0.7,1.0,125.0,0.0,5875.0,0,1.0,1.0
335,335,-0.7316441497621786,-0.7,1.0,125.0,0.0,5875.0,0,1.0,1.0
336,336,0.8980390587526127,0.9,1.0,125.0,1.0,5875.0,1,0.0,1.0
337,337,-0.27516999163579225,-0.3,0.0,125.0,0.0,5875.0,1,0.0,0.0
338,338,-0.12508704542086335,-0.1,0.0,125.0,1.0,5875.0,0,0.0,1.0
339,339,-0.4078014959238475,-0.4,1.0,125.0,1.0,5875.0,1,1.0,0.0
340,340,-0.5732217766616408,-0.6,1.0,125.0,1.0,5875.0,1,1.0,0.0
341,341,0.8578104049662444,0.9,0.0,125.0,1.0,5875.0,0,1.0,0.0
342,342,0.8786926220185284,0.9,1.0,125.0,0.0,5875.0,0,0.0,0.0
343,343,-0.17639495592190313,-0.2,0.0,125.0,1.0,5875.0,0,0.0,1.0
344,344,0.4763645775372517,0.5,0.0,125.0,0.0,5875.0,1,1.0,1.0
345,345,-0.01327819183427914,-0.0,0.0,125.0,0.0,5875.0,1,0.0,0.0
346,346,-0.28868269234865673,-0.3,0.0,125.0,1.0,5875.0,0,0.0,1.0
347,347,0.45927628414331567,0.5,1.0,125.0,1.0,5875.0,1,0.0,1.0
348,348,-0.08516301105586999,-0.1,0.0,125.0,0.0,5875.0,1,0.0,0.0
349,349,-0.5972412280039303,-0.6,0.0,125.0,1.0,5875.0,0,0.0,1.0
350,350,0.6530385542488303,0.7,0.0,125.0,1.0,5875.0,0,1.0,0.0
351,351,0.30735618454786773,0.3,1.0,125.0,1.0,5875.0,1,0.0,1.0
352,352,-0.8606481698364223,-0.9,0.0,125.0,0.0,5875.0,1,0.0,0.0
353,353,-0.024222362430731392,-0.0,0.0,125.0,1.0,5875.0,0,0.0,1.0
354,354,-0.08536299674242087,-0.1,0.0,125.0,0.0,5875.0,1,0.0,0.0
355,355,0.17430803226847325,0.2,0.0,125.0,0.0,5875.0,1,1.0,1.0
356,356,0.125726862287047,0.1,0.0,125.0,1.0,5875.0,0,1.0,0.0
357,357,-0.4662226666273705,-0.5,1.0,125.0,1.0,5875.0,1,1.0,0.0
358,358,-0.8799480472489442,-0.9,1.0,125.0,0.0,5875.0,0,1.0,1.0
359,359,-0.501728747462337,-0.5,0.0,125.0,1.0,5875.0,0,0.0,1.0
360,360,0.5442131755703513,0.5,1.0,125.0,1.0,5875.0,1,0.0,1.0
361,361,-0.27512214665769785,-0.3,1.0,125.0,1.0,5875.0,1,1.0,0.0
362,362,-0.2787559211683023,-0.3,0.0,125.0,1.0,5875.0,0,0.0,1.0
363,363,-0.5055140813008345,-0.5,1.0,125.0,0.0,5875.0,0,1.0,1.0
364,364,0.1218564309594995,0.1,1.0,125.0,1.0,5875.0,1,0.0,1.0
365,365,-0.5597841210211159,-0.6,1.0,125.0,1.0,5875.0,1,1.0,0.0
366,366,0.8641238176041165,0.9,0.0,125.0,1.0,5875.0,0,1.0,0.0
367,367,-0.8738975232619627,-0.9,0.0,125.0,0.0,2805.0,1,0.0,0.0
368,368,0.497498814395965,0.5,0.0,125.0,1.0,5875.0,0,1.0,0.0
369,369,-0.7119936857425575,-0.7,1.0,125.0,1.0,5875.0,1,1.0,0.0
370,370,-0.28875576048446516,-0.3,0.0,125.0,0.0,5875.0,1,0.0,0.0
371,371,0.37720933488313835,0.4,0.0,125.0,0.0,5875.0,1,1.0,1.0
372,372,0.7077938282913369,0.7,1.0,125.0,0.0,5875.0,0,0.0,0.0
373,373,0.43347273610563886,0.4,1.0,125.0,1.0,5875.0,1,0.0,1.0
374,374,-0.48645603909989754,-0.5,1.0,125.0,1.0,5875.0,1,1.0,0.0
375,375,0.8935092933868339,0.9,0.0,125.0,0.0,5875.0,1,1.0,1.0
376,376,-0.5082912754895001,-0.5,1.0,125.0,0.0,5875.0,0,1.0,1.0
377,377,-0.89580958985848,-0.9,0.0,125.0,1.0,5875.0,0,0.0,1.0
378,378,0.5613938134224444,0.6,1.0,125.0,1.0,5875.0,1,0.0,1.0
379,379,0.595947807338019,0.6,0.0,125.0,1.0,5875.0,0,1.0,0.0
380,380,-0.04867764317739087,-0.0,1.0,125.0,1.0,5875.0,1,1.0,0.0
381,381,0.6195228066305402,0.6,1.0,125.0,1.0,5875.0,1,0.0,1.0
382,382,-0.4918769095623628,-0.5,0.0,125.0,1.0,5875.0,0,0.0,1.0
383,383,0.30725724328350246,0.3,0.0,125.0,1.0,5875.0,0,1.0,0.0
384,384,-0.4008070614673663,-0.4,1.0,125.0,0.0,5875.0,0,1.0,1.0
385,385,0.8013183551553819,0.8,0.0,125.0,0.0,5875.0,1,1.0,1.0
386,386,-0.37899825320535874,-0.4,0.0,125.0,1.0,5875.0,0,0.0,1.0
387,387,0.44872557439685756,0.4,0.0,125.0,0.0,5875.0,1,1.0,1.0
388,388,-0.23755362862661822,-0.2,1.0,125.0,1.0,5875.0,1,1.0,0.0
389,389,0.293923264884289,0.3,0.0,125.0,0.0,5875.0,1,1.0,1.0
390,390,-0.5620546096930485,-0.6,0.0,125.0,0.0,5875.0,1,0.0,0.0
391,391,-0.14338574413704064,-0.1,1.0,125.0,0.0,5875.0,0,1.0,1.0
392,392,0.02353046608100784,0.0,0.0,125.0,1.0,5875.0,0,1.0,0.0
393,393,-0.5676224250077104,-0.6,1.0,125.0,0.0,5875.0,0,1.0,1.0
394,394,-0.1416083103668898,-0.1,1.0,125.0,0.0,5875.0,0,1.0,1.0
395,395,0.7412325630498754,0.7,0.0,125.0,1.0,5875.0,0,1.0,0.0
396,396,-0.8752089514206374,-0.9,0.0,125.0,1.0,5875.0,0,0.0,1.0
397,397,-0.1874136092337756,-0.2,1.0,125.0,1.0,5875.0,1,1.0,0.0
398,398,-0.10070755969774503,-0.1,0.0,125.0,0.0,5875.0,1,0.0,0.0
399,399,-0.16458048652967838,-0.2,1.0,125.0,1.0,5875.0,1,1.0,0.0
400,400,-0.005660987776517468,-0.0,1.0,125.0,1.0,5875.0,1,1.0,0.0
401,401,0.49217995109854173,0.5,1.0,125.0,0.0,5875.0,0,0.0,0.0
402,402,0.3175283399058503,0.3,1.0,125.0,0.0,5875.0,0,0.0,0.0
403,403,0.856928091950181,0.9,0.0,125.0,0.0,5875.0,1,1.0,1.0
404,404,-0.49760376417566227,-0.5,0.0,125.0,1.0,5875.0,0,0.0,1.0
405,405,0.5017626265125549,0.5,1.0,125.0,1.0,5875.0,1,0.0,1.0
406,406,-0.7818687834574016,-0.8,1.0,125.0,1.0,5875.0,1,1.0,0.0
407,407,-0.20234191899127973,-0.2,1.0,125.0,0.0,5875.0,0,1.0,1.0
408,408,-0.6292946869224305,-0.6,1.0,125.0,1.0,5875.0,1,1.0,0.0
409,409,-0.627935156061008,-0.6,1.0,125.0,0.0,5875.0,0,1.0,1.0
410,410,-0.620430069331446,-0.6,1.0,125.0,1.0,5875.0,1,1.0,0.0
411,411,0.30958009785471774,0.3,0.0,125.0,1.0,5875.0,0,1.0,0.0
412,412,-0.8295218170730675,-0.8,1.0,125.0,0.0,5875.0,0,1.0,1.0
413,413,-0.3289719964049458,-0.3,1.0,125.0,1.0,5875.0,1,1.0,0.0
414,414,-0.05346405108421415,-0.1,1.0,125.0,1.0,5875.0,1,1.0,0.0
415,415,0.436742525427234,0.4,0.0,125.0,1.0,5875.0,0,1.0,0.0
416,416,-0.20056282965290373,-0.2,0.0,125.0,1.0,5875.0,0,0.0,1.0
417,417,0.48864466493710845,0.5,0.0,125.0,0.0,5875.0,1,1.0,1.0
418,418,0.18830436475478696,0.2,1.0,125.0,1.0,5875.0,1,0.0,1.0
419,419,0.48991961524190997,0.5,0.0,125.0,1.0,5875.0,0,1.0,0.0
420,420,0.0017669987499676632,0.0,0.0,125.0,1.0,5875.0,0,1.0,0.0
421,421,-0.5503617449896201,-0.6,1.0,125.0,0.0,5875.0,0,1.0,1.0
422,422,0.11784083129902878,0.1,1.0,125.0,0.0,5875.0,0,0.0,0.0
423,423,-0.8446667590351236,-0.8,0.0,125.0,0.0,5875.0,1,0.0,0.0
424,424,-0.054814600629324306,-0.1,1.0,125.0,0.0,5875.0,0,1.0,1.0
425,425,-0.6275066615907474,-0.6,1.0,125.0,1.0,5875.0,1,1.0,0.0
426,426,0.8094099825259108,0.8,0.0,125.0,1.0,5875.0,0,1.0,0.0
427,427,0.8872029517168133,0.9,1.0,125.0,0.0,5875.0,0,0.0,0.0
428,428,-0.17768647122189374,-0.2,0.0,125.0,1.0,5875.0,0,0.0,1.0
429,429,0.03448859303060936,0.0,0.0,125.0,1.0,5875.0,0,1.0,0.0
430,430,0.6176331959938423,0.6,0.0,125.0,1.0,5875.0,0,1.0,0.0
431,431,0.5189625827223435,0.5,0.0,125.0,0.0,5875.0,1,1.0,1.0
432,432,0.5630203371947512,0.6,1.0,125.0,0.0,5875.0,0,0.0,0.0
433,433,0.23314328261221007,0.2,1.0,125.0,1.0,5875.0,1,0.0,1.0
434,434,-0.21236570387373988,-0.2,0.0,125.0,1.0,5875.0,0,0.0,1.0
435,435,-0.5132419897172689,-0.5,0.0,125.0,1.0,5875.0,0,0.0,1.0
436,436,0.6703567132316747,0.7,0.0,125.0,0.0,5875.0,1,1.0,1.0
437,437,-0.6461179678657429,-0.6,1.0,125.0,1.0,5875.0,1,1.0,0.0
438,438,0.7050477031820538,0.7,0.0,125.0,0.0,5875.0,1,1.0,1.0
439,439,0.8521263958885493,0.9,1.0,125.0,0.0,5875.0,0,0.0,0.0
440,440,0.8984673952887651,0.9,1.0,125.0,0.0,5875.0,0,0.0,0.0
441,441,0.18419486209343983,0.2,0.0,125.0,0.0,5875.0,1,1.0,1.0
442,442,0.7279400284512066,0.7,0.0,125.0,0.0,5875.0,1,1.0,1.0
443,443,-0.6339158179760523,-0.6,1.0,125.0,0.0,5875.0,0,1.0,1.0
444,444,0.5694121469482817,0.6,0.0,125.0,1.0,5875.0,0,1.0,0.0
445,445,0.8733869137969917,0.9,0.0,125.0,1.0,5875.0,0,1.0,0.0
446,446,0.6609123012738839,0.7,1.0,125.0,1.0,5875.0,1,0.0,1.0
447,447,-0.5213126892555564,-0.5,0.0,125.0,1.0,5875.0,0,0.0,1.0
448,448,-0.013659085251783831,-0.0,1.0,125.0,0.0,5875.0,0,1.0,1.0
449,449,0.10128480100909598,0.1,0.0,125.0,0.0,5875.0,1,1.0,1.0
450,450,-0.5071560411010235,-0.5,0.0,125.0,1.0,5875.0,0,0.0,1.0
451,451,-0.40084412817671755,-0.4,0.0,125.0,1.0,5875.0,0,0.0,1.0
452,452,0.15199742528637283,0.2,0.0,125.0,0.0,5875.0,1,1.0,1.0
453,453,0.30901089486831534,0.3,0.0,125.0,0.0,5875.0,1,1.0,1.0
454,454,-0.24980717935796615,-0.2,0.0,125.0,0.0,5875.0,1,0.0,0.0
455,455,-0.01875185984383565,-0.0,0.0,125.0,1.0,5875.0,0,0.0,1.0
456,456,0.581283159087388,0.6,0.0,125.0,0.0,5875.0,1,1.0,1.0
457,457,-0.22339950884697302,-0.2,1.0,125.0,0.0,5875.0,0,1.0,1.0
458,458,-0.355695842094208,-0.4,1.0,125.0,1.0,5875.0,1,1.0,0.0
459,459,-0.27225291177066135,-0.3,1.0,125.0,0.0,5875.0,0,1.0,1.0
460,460,0.5396966968820543,0.5,1.0,125.0,0.0,5875.0,0,0.0,0.0
461,461,0.3990482396561913,0.4,0.0,125.0,0.0,5875.0,1,1.0,1.0
462,462,0.5044523957025885,0.5,0.0,125.0,1.0,5875.0,0,1.0,0.0
463,463,0.1627250947968576,0.2,0.0,125.0,0.0,5875.0,1,1.0,1.0
464,464,-0.3589078146587047,-0.4,1.0,125.0,0.0,5875.0,0,1.0,1.0
465,465,-0.604324984147883,-0.6,0.0,125.0,1.0,5875.0,0,0.0,1.0
466,466,-0.08964899490346323,-0.1,1.0,125.0,1.0,5875.0,1,1.0,0.0
467,467,0.27892117316319476,0.3,1.0,125.0,1.0,5875.0,1,0.0,1.0
468,468,0.5610975741250465,0.6,0.0,125.0,0.0,5875.0,1,1.0,1.0
469,469,0.5737180555013727,0.6,0.0,125.0,0.0,5875.0,1,1.0,1.0
470,470,0.7134624013304026,0.7,1.0,125.0,1.0,5875.0,1,0.0,1.0
471,471,-0.09559902916870688,-0.1,1.0,125.0,1.0,5875.0,1,1.0,0.0
472,472,-0.831954708151576,-0.8,1.0,125.0,0.0,5875.0,0,1.0,1.0
473,473,-0.7719490188272816,-0.8,1.0,125.0,1.0,5875.0,1,1.0,0.0
474,474,0.28326478206552974,0.3,0.0,125.0,1.0,5875.0,0,1.0,0.0
475,475,-0.1717540277828663,-0.2,1.0,125.0,0.0,5875.0,0,1.0,1.0
476,476,0.19713014356169378,0.2,1.0,125.0,1.0,5875.0,1,0.0,1.0
477,477,-0.19825242952584277,-0.2,0.0,125.0,1.0,5875.0,0,0.0,1.0
478,478,0.8486176973846237,0.8,1.0,125.0,1.0,5875.0,1,0.0,1.0
479,479,0.7381232471435021,0.7,1.0,125.0,0.0,5875.0,0,0.0,0.0
480,480,0.2738934064843427,0.3,0.0,125.0,0.0,5875.0,1,1.0,1.0
481,481,-0.03428792604205688,-0.0,1.0,125.0,0.0,5875.0,0,1.0,1.0
482,482,0.1212304546760462,0.1,1.0,125.0,1.0,5875.0,1,0.0,1.0
483,483,0.014111729340323897,0.0,1.0,125.0,1.0,5875.0,1,0.0,1.0
484,484,0.09711892100790764,0.1,1.0,125.0,0.0,5875.0,0,0.0,0.0
485,485,-0.25287881976847904,-0.3,1.0,125.0,0.0,5875.0,0,1.0,1.0
486,486,0.44434129626055807,0.4,0.0,125.0,1.0,5875.0,0,1.0,0.0
487,487,-0.2187311542251158,-0.2,1.0,125.0,1.0,5875.0,1,1.0,0.0
488,488,-0.05793135951959594,-0.1,1.0,125.0,0.0,5875.0,0,1.0,1.0
489,489,-0.36754398130108157,-0.4,0.0,125.0,0.0,5875.0,1,0.0,0.0
490,490,0.1336488468419904,0.1,1.0,125.0,0.0,5875.0,0,0.0,0.0
491,491,0.4997975529659563,0.5,1.0,125.0,1.0,5875.0,1,0.0,1.0
492,492,-0.3417365897081732,-0.3,0.0,125.0,1.0,5875.0,0,0.0,1.0
493,493,0.4054952907490229,0.4,1.0,125.0,1.0,5875.0,1,0.0,1.0
494,494,-0.44311465560254193,-0.4,1.0,125.0,0.0,5875.0,0,1.0,1.0
495,495,0.7037312994983443,0.7,1.0,125.0,1.0,5875.0,1,0.0,1.0
496,496,-0.3086938604243006,-0.3,0.0,125.0,1.0,5875.0,0,0.0,1.0
497,497,0.4989743297634933,0.5,0.0,125.0,1.0,5875.0,0,1.0,0.0
498,498,0.6066341275852475,0.6,1.0,125.0,0.0,5875.0,0,0.0,0.0
499,499,-0.4790816796648831,-0.5,1.0,125.0,1.0,5875.0,1,1.0,0.0
500,500,0.8881101214494086,0.9,0.0,125.0,1.0,5875.0,0,1.0,0.0
501,501,-0.6456310769466524,-0.6,0.0,125.0,1.0,5875.0,0,0.0,1.0
502,502,-0.2980398749772959,-0.3,0.0,125.0,1.0,5875.0,0,0.0,1.0
503,503,0.6057387504830679,0.6,0.0,125.0,1.0,5875.0,0,1.0,0.0
504,504,0.5251492317141805,0.5,1.0,125.0,0.0,5875.0,0,0.0,0.0
505,505,0.38289281885633486,0.4,1.0,125.0,1.0,5875.0,1,0.0,1.0
506,506,0.5735898077883984,0.6,1.0,125.0,1.0,5875.0,1,0.0,1.0
507,507,0.062350888338182364,0.1,0.0,125.0,0.0,5875.0,1,1.0,1.0
508,508,-0.5448885706662262,-0.5,0.0,125.0,0.0,5875.0,1,0.0,0.0
509,509,0.7367680480750624,0.7,1.0,125.0,1.0,5875.0,1,0.0,1.0
510,510,0.7454516142555841,0.7,0.0,125.0,1.0,5875.0,0,1.0,0.0
511,511,-0.573329122026621,-0.6,1.0,125.0,1.0,5875.0,1,1.0,0.0
512,512,-0.7945259661992381,-0.8,1.0,125.0,0.0,5875.0,0,1.0,1.0
513,513,-0.19650879904217378,-0.2,1.0,125.0,0.0,5875.0,0,1.0,1.0
514,514,0.4823805963236433,0.5,1.0,125.0,1.0,5875.0,1,0.0,1.0
515,515,-0.6479917305060782,-0.6,1.0,125.0,0.0,5875.0,0,1.0,1.0
516,516,0.3287778587531208,0.3,0.0,125.0,1.0,5875.0,0,1.0,0.0
517,517,0.2974405469090743,0.3,1.0,125.0,1.0,5875.0,1,0.0,1.0
518,518,0.04889655263257331,0.0,1.0,125.0,1.0,5875.0,1,0.0,1.0
519,519,0.6862059643945536,0.7,1.0,125.0,1.0,5875.0,1,0.0,1.0
520,520,-0.8648839960536839,-0.9,1.0,125.0,0.0,5875.0,0,1.0,1.0
521,521,-0.7527972243386767,-0.8,1.0,125.0,0.0,5875.0,0,1.0,1.0
522,522,0.6863046252193038,0.7,1.0,125.0,1.0,5875.0,1,0.0,1.0
523,523,-0.8803930362014819,-0.9,0.0,125.0,1.0,5875.0,0,0.0,1.0
524,524,-0.5651122160260544,-0.6,1.0,125.0,1.0,5875.0,1,1.0,0.0
525,525,-0.5475549583891325,-0.5,0.0,125.0,1.0,5875.0,0,0.0,1.0
526,526,0.2734450337819675,0.3,0.0,125.0,0.0,5875.0,1,1.0,1.0
527,527,0.3440516240658468,0.3,0.0,125.0,1.0,5875.0,0,1.0,0.0
528,528,0.0676382072292564,0.1,0.0,125.0,0.0,5875.0,1,1.0,1.0
529,529,-0.12769979429351797,-0.1,1.0,125.0,0.0,5875.0,0,1.0,1.0
530,530,-0.2548731199863009,-0.3,0.0,125.0,1.0,5875.0,0,0.0,1.0
531,531,0.17938085306146456,0.2,0.0,125.0,0.0,5875.0,1,1.0,1.0
532,532,-0.3017141033717585,-0.3,1.0,125.0,0.0,5875.0,0,1.0,1.0
533,533,0.2679069799087149,0.3,0.0,125.0,1.0,5875.0,0,1.0,0.0
534,534,0.28818445383815317,0.3,0.0,125.0,0.0,5875.0,1,1.0,1.0
535,535,0.6207696681306888,0.6,0.0,125.0,0.0,5875.0,1,1.0,1.0
536,536,0.6781609610569822,0.7,1.0,125.0,0.0,5875.0,0,0.0,0.0
537,537,-0.22748066011733825,-0.2,1.0,125.0,0.0,5875.0,0,1.0,1.0
538,538,0.19004514883806,0.2,0.0,125.0,0.0,5875.0,1,1.0,1.0
539,539,0.37575275186141044,0.4,1.0,125.0,0.0,5875.0,0,0.0,0.0
540,540,-0.8928316635938897,-0.9,0.0,125.0,1.0,5875.0,0,0.0,1.0
541,541,0.6489718339292939,0.6,1.0,125.0,0.0,5875.0,0,0.0,0.0
542,542,-0.7805920567979251,-0.8,0.0,125.0,0.0,5875.0,1,0.0,0.0
543,543,0.5623330181695531,0.6,0.0,125.0,1.0,5875.0,0,1.0,0.0
544,544,-0.024959735954965367,-0.0,1.0,125.0,1.0,5875.0,1,1.0,0.0
545,545,0.7980059691938725,0.8,1.0,125.0,1.0,5875.0,1,0.0,1.0
546,546,-0.7475533798689388,-0.7,1.0,125.0,0.0,5875.0,0,1.0,1.0
547,547,-0.7321856609108561,-0.7,0.0,125.0,1.0,5875.0,0,0.0,1.0
548,548,0.8169886371311962,0.8,0.0,125.0,1.0,5875.0,0,1.0,0.0
549,549,0.17120245588474237,0.2,1.0,125.0,1.0,5875.0,1,0.0,1.0
550,550,-0.7387778985268351,-0.7,0.0,125.0,1.0,5875.0,0,0.0,1.0
551,551,-0.7583017142108982,-0.8,0.0,125.0,0.0,5875.0,1,0.0,0.0
552,552,-0.6723361513741786,-0.7,1.0,125.0,0.0,5875.0,0,1.0,1.0
553,553,-0.3403445544342206,-0.3,1.0,125.0,1.0,5875.0,1,1.0,0.0
554,554,-0.5087551997778839,-0.5,1.0,125.0,1.0,5875.0,1,1.0,0.0
555,555,0.18951742840143238,0.2,1.0,125.0,0.0,5875.0,0,0.0,0.0
556,556,-0.4535910340801804,-0.5,0.0,125.0,1.0,5875.0,0,0.0,1.0
557,557,0.5327741999043246,0.5,1.0,125.0,1.0,5875.0,1,0.0,1.0
558,558,-0.665809602388552,-0.7,1.0,125.0,0.0,5875.0,0,1.0,1.0
559,559,0.19103939411693893,0.2,1.0,125.0,1.0,5875.0,1,0.0,1.0
560,560,-0.7414045160830149,-0.7,1.0,125.0,0.0,5875.0,0,1.0,1.0
561,561,-0.3366991567975417,-0.3,1.0,125.0,1.0,5875.0,1,1.0,0.0
562,562,-0.5059566979566777,-0.5,0.0,125.0,1.0,5875.0,0,0.0,1.0
563,563,0.7489081595255783,0.7,0.0,125.0,1.0,5875.0,0,1.0,0.0
564,564,-0.8424549618828413,-0.8,0.0,125.0,1.0,5875.0,0,0.0,1.0
565,565,-0.12502302737533455,-0.1,0.0,125.0,1.0,5875.0,0,0.0,1.0
566,566,0.2728651314718652,0.3,0.0,125.0,0.0,5875.0,1,1.0,1.0
567,567,0.055657341429803386,0.1,0.0,125.0,0.0,5875.0,1,1.0,1.0
568,568,-0.44895566472582615,-0.4,0.0,125.0,1.0,5875.0,0,0.0,1.0
569,569,0.7418733646519672,0.7,1.0,125.0,1.0,5875.0,1,0.0,1.0
570,570,0.4750624339594055,0.5,0.0,125.0,0.0,5875.0,1,1.0,1.0
571,571,0.2646237479130512,0.3,1.0,125.0,1.0,5875.0,1,0.0,1.0
572,572,0.3490386177551005,0.3,0.0,125.0,1.0,5875.0,0,1.0,0.0
573,573,-0.6427340980608485,-0.6,0.0,125.0,0.0,5875.0,1,0.0,0.0
574,574,0.5593517680418744,0.6,0.0,125.0,1.0,5875.0,0,1.0,0.0
575,575,0.1123312655927241,0.1,1.0,125.0,1.0,5875.0,1,0.0,1.0
576,576,-0.0498567771258126,-0.0,1.0,125.0,0.0,5875.0,0,1.0,1.0
577,577,0.4160424873734515,0.4,1.0,125.0,1.0,5875.0,1,0.0,1.0
578,578,-0.6321605643069869,-0.6,0.0,125.0,0.0,5875.0,1,0.0,0.0
579,579,0.6503232933831092,0.7,1.0,125.0,1.0,5875.0,1,0.0,1.0
580,580,-0.29782584254050226,-0.3,0.0,125.0,1.0,5875.0,0,0.0,1.0
581,581,-0.7844959818451581,-0.8,1.0,125.0,1.0,5875.0,1,1.0,0.0
582,582,-0.8660311890767948,-0.9,0.0,125.0,0.0,5875.0,1,0.0,0.0
583,583,0.09851900156329463,0.1,1.0,125.0,1.0,5875.0,1,0.0,1.0
584,584,-0.24365547988653102,-0.2,1.0,125.0,1.0,5875.0,1,1.0,0.0
585,585,-0.4334796251240954,-0.4,1.0,125.0,0.0,5875.0,0,1.0,1.0
586,586,0.7895670402647991,0.8,0.0,125.0,0.0,5875.0,1,1.0,1.0
587,587,0.08738246538054506,0.1,0.0,125.0,1.0,5875.0,0,1.0,0.0
588,588,0.5627916603948601,0.6,1.0,125.0,1.0,5875.0,1,0.0,1.0
589,589,0.6230382862338418,0.6,1.0,125.0,1.0,5875.0,1,0.0,1.0
590,590,0.07680303551580947,0.1,1.0,125.0,1.0,5875.0,1,0.0,1.0
591,591,-0.05553733083787682,-0.1,0.0,125.0,1.0,5875.0,0,0.0,1.0
592,592,0.14680223240968593,0.1,1.0,125.0,0.0,5875.0,0,0.0,0.0
593,593,0.13603004293514898,0.1,1.0,125.0,1.0,5875.0,1,0.0,1.0
594,594,0.3280087039805969,0.3,0.0,125.0,0.0,5875.0,1,1.0,1.0
595,595,-0.10644724526976745,-0.1,0.0,125.0,0.0,5875.0,1,0.0,0.0
596,596,0.797521147289446,0.8,1.0,125.0,0.0,5875.0,0,0.0,0.0
597,597,0.8598622413080189,0.9,1.0,125.0,0.0,5875.0,0,0.0,0.0
598,598,0.1171893703221375,0.1,1.0,125.0,1.0,5875.0,1,0.0,1.0
599,599,0.11682437952786529,0.1,1.0,125.0,1.0,5875.0,1,0.0,1.0
600,600,-0.8093888898984258,-0.8,0.0,125.0,0.0,5875.0,1,0.0,0.0
601,601,-0.4799618305139485,-0.5,0.0,125.0,1.0,5875.0,0,0.0,1.0
602,602,-0.5880850225417291,-0.6,0.0,125.0,0.0,5875.0,1,0.0,0.0
603,603,-0.0297743623993727,-0.0,0.0,125.0,0.0,5875.0,1,0.0,0.0
604,604,-0.6232138287392357,-0.6,1.0,125.0,0.0,5875.0,0,1.0,1.0
605,605,0.4203274306407295,0.4,0.0,125.0,1.0,5875.0,0,1.0,0.0
606,606,-0.2525504473555319,-0.3,0.0,125.0,0.0,5875.0,1,0.0,0.0
607,607,-0.5231881553205533,-0.5,0.0,125.0,1.0,5875.0,0,0.0,1.0
608,608,0.09963498648381652,0.1,0.0,125.0,1.0,5875.0,0,1.0,0.0
609,609,0.6679766497622531,0.7,1.0,125.0,1.0,5875.0,1,0.0,1.0
610,610,0.8575589264749638,0.9,0.0,125.0,1.0,5875.0,0,1.0,0.0
611,611,0.21240239778849246,0.2,1.0,125.0,1.0,5875.0,1,0.0,1.0
612,612,0.5829807759847042,0.6,0.0,125.0,1.0,5875.0,0,1.0,0.0
613,613,-0.30781849820978646,-0.3,1.0,125.0,0.0,5875.0,0,1.0,1.0
614,614,0.7037934682457013,0.7,1.0,125.0,1.0,5875.0,1,0.0,1.0
615,615,0.5964297864779368,0.6,0.0,125.0,0.0,5875.0,1,1.0,1.0
616,616,0.5838136388951772,0.6,0.0,125.0,1.0,5875.0,0,1.0,0.0
617,617,-0.006522533055211777,-0.0,1.0,125.0,0.0,5875.0,0,1.0,1.0
618,618,0.49977896514685927,0.5,0.0,125.0,0.0,5875.0,1,1.0,1.0
619,619,-0.8164216258335403,-0.8,0.0,125.0,1.0,5875.0,0,0.0,1.0
620,620,0.5265329304571135,0.5,0.0,125.0,0.0,5875.0,1,1.0,1.0
621,621,-0.8559413632528815,-0.9,1.0,125.0,1.0,5875.0,1,1.0,0.0
622,622,-0.7073442679048592,-0.7,1.0,125.0,0.0,5875.0,0,1.0,1.0
623,623,-0.8793364503787631,-0.9,1.0,125.0,0.0,5875.0,0,1.0,1.0
624,624,0.5585794995611352,0.6,0.0,125.0,0.0,5875.0,1,1.0,1.0
625,625,0.2125789747927952,0.2,1.0,125.0,1.0,5875.0,1,0.0,1.0
626,626,0.17586735590338953,0.2,0.0,125.0,1.0,5875.0,0,1.0,0.0
627,627,-0.4594048278469696,-0.5,1.0,125.0,0.0,5875.0,0,1.0,1.0
628,628,-0.27236944751656633,-0.3,1.0,125.0,0.0,5875.0,0,1.0,1.0
629,629,-0.49046424486947543,-0.5,0.0,125.0,0.0,5875.0,1,0.0,0.0
630,630,0.5748762174619179,0.6,1.0,125.0,0.0,5875.0,0,0.0,0.0
631,631,-0.4758519970481883,-0.5,0.0,125.0,0.0,5875.0,1,0.0,0.0
632,632,0.6492138706281737,0.6,1.0,125.0,1.0,5875.0,1,0.0,1.0
633,633,0.25690074592046785,0.3,0.0,125.0,0.0,5875.0,1,1.0,1.0
634,634,-0.8870078690927508,-0.9,0.0,125.0,1.0,5875.0,0,0.0,1.0
635,635,0.35488911958332336,0.4,0.0,125.0,0.0,5875.0,1,1.0,1.0
636,636,-0.5473743210769546,-0.5,0.0,125.0,1.0,5875.0,0,0.0,1.0
637,637,0.006719651783671066,0.0,0.0,125.0,1.0,5875.0,0,1.0,0.0
638,638,0.08315027936326891,0.1,1.0,125.0,0.0,5875.0,0,0.0,0.0
639,639,0.4223558322134394,0.4,1.0,125.0,1.0,5875.0,1,0.0,1.0
640,640,-0.41117587242669534,-0.4,1.0,125.0,0.0,5875.0,0,1.0,1.0
641,641,0.011830258950058514,0.0,1.0,125.0,0.0,5875.0,0,0.0,0.0
642,642,0.5425346646999164,0.5,1.0,125.0,1.0,5875.0,1,0.0,1.0
643,643,-0.4704869406871341,-0.5,1.0,125.0,0.0,5875.0,0,1.0,1.0
644,644,-0.0714414251541956,-0.1,0.0,125.0,1.0,5875.0,0,0.0,1.0
645,645,-0.8840539553299165,-0.9,0.0,125.0,1.0,5875.0,0,0.0,1.0
646,646,0.04137774850863918,0.0,0.0,125.0,0.0,5875.0,1,1.0,1.0
647,647,0.46381904251106854,0.5,1.0,125.0,0.0,5875.0,0,0.0,0.0
648,648,0.4281125987678419,0.4,1.0,125.0,1.0,5875.0,1,0.0,1.0
649,649,-0.05240865839770337,-0.1,0.0,125.0,0.0,5875.0,1,0.0,0.0
650,650,0.6420259404495078,0.6,1.0,125.0,1.0,5875.0,1,0.0,1.0
651,651,-0.8556261570268037,-0.9,1.0,125.0,0.0,5875.0,0,1.0,1.0
652,652,-0.4725899056247345,-0.5,1.0,125.0,1.0,5875.0,1,1.0,0.0
653,653,-0.6564731880361704,-0.7,0.0,125.0,0.0,5875.0,1,0.0,0.0
654,654,-0.3230577112150166,-0.3,0.0,125.0,1.0,5875.0,0,0.0,1.0
655,655,0.0452993227880345,0.0,1.0,125.0,1.0,5875.0,1,0.0,1.0
656,656,0.32848242660151816,0.3,1.0,125.0,0.0,5875.0,0,0.0,0.0
657,657,0.28532764824257406,0.3,0.0,125.0,1.0,5875.0,0,1.0,0.0
658,658,-0.46775611184480403,-0.5,1.0,125.0,1.0,5875.0,1,1.0,0.0
659,659,-0.7517564303790948,-0.8,1.0,125.0,0.0,5875.0,0,1.0,1.0
660,660,0.05977529813696525,0.1,0.0,125.0,0.0,5875.0,1,1.0,1.0
661,661,-0.549690762478666,-0.5,0.0,125.0,0.0,5875.0,1,0.0,0.0
662,662,0.6199249247049544,0.6,1.0,125.0,1.0,5875.0,1,0.0,1.0
663,663,-0.030759294274831928,-0.0,0.0,125.0,1.0,5875.0,0,0.0,1.0
664,664,-0.07621719714540254,-0.1,0.0,125.0,1.0,5875.0,0,0.0,1.0
665,665,-0.15291341096802158,-0.2,0.0,125.0,1.0,5875.0,0,0.0,1.0
666,666,-0.5908373085092484,-0.6,1.0,125.0,1.0,5875.0,1,1.0,0.0
667,667,-0.48348033573705346,-0.5,0.0,125.0,1.0,5875.0,0,0.0,1.0
668,668,-0.273648071183616,-0.3,1.0,125.0,0.0,5875.0,0,1.0,1.0
669,669,-0.011522972965042233,-0.0,0.0,125.0,1.0,5875.0,0,0.0,1.0
670,670,-0.14173512159443624,-0.1,0.0,125.0,1.0,5875.0,0,0.0,1.0
671,671,-0.2944577438566025,-0.3,0.0,125.0,1.0,5875.0,0,0.0,1.0
672,672,-0.1120488037691787,-0.1,1.0,125.0,1.0,5875.0,1,1.0,0.0
673,673,-0.7290334252050694,-0.7,0.0,125.0,1.0,5875.0,0,0.0,1.0
674,674,0.1565376926667662,0.2,1.0,125.0,1.0,5875.0,1,0.0,1.0
675,675,-0.7101231748818939,-0.7,0.0,125.0,0.0,5875.0,1,0.0,0.0
676,676,0.7492964872415474,0.7,1.0,125.0,1.0,5875.0,1,0.0,1.0
677,677,0.42173306673201305,0.4,0.0,125.0,1.0,5875.0,0,1.0,0.0
678,678,-0.17881264609935177,-0.2,1.0,125.0,1.0,5875.0,1,1.0,0.0
679,679,0.2132436188159127,0.2,1.0,125.0,1.0,5875.0,1,0.0,1.0
680,680,0.4857588291782301,0.5,1.0,125.0,0.0,5875.0,0,0.0,0.0
681,681,0.75117398231634,0.8,0.0,125.0,0.0,5875.0,1,1.0,1.0
682,682,-0.7837766862639927,-0.8,1.0,125.0,1.0,5875.0,1,1.0,0.0
683,683,0.055278722670574765,0.1,0.0,125.0,0.0,5875.0,1,1.0,1.0
684,684,-0.7496868741194032,-0.7,0.0,125.0,1.0,5875.0,0,0.0,1.0
685,685,0.1754119726442508,0.2,0.0,125.0,0.0,5875.0,1,1.0,1.0
686,686,-0.3680479759473254,-0.4,0.0,125.0,0.0,5875.0,1,0.0,0.0
687,687,0.23060908664475355,0.2,1.0,125.0,1.0,5875.0,1,0.0,1.0
688,688,0.6034332087020969,0.6,0.0,125.0,0.0,5875.0,1,1.0,1.0
689,689,0.02602889197995939,0.0,1.0,125.0,0.0,5875.0,0,0.0,0.0
690,690,0.8299340116824864,0.8,0.0,125.0,1.0,5875.0,0,1.0,0.0
691,691,0.8364096015300432,0.8,1.0,125.0,1.0,5875.0,1,0.0,1.0
692,692,0.3111395762261012,0.3,0.0,125.0,0.0,5875.0,1,1.0,1.0
693,693,0.04723022986885961,0.0,1.0,125.0,1.0,5875.0,1,0.0,1.0
694,694,0.694643327322071,0.7,1.0,125.0,1.0,5875.0,1,0.0,1.0
695,695,-0.8598448102254744,-0.9,1.0,125.0,0.0,5875.0,0,1.0,1.0
696,696,0.6881486315242756,0.7,1.0,125.0,0.0,5875.0,0,0.0,0.0
697,697,-0.27945407566992875,-0.3,0.0,125.0,1.0,5875.0,0,0.0,1.0
698,698,0.7809797947314777,0.8,1.0,125.0,0.0,5875.0,0,0.0,0.0
699,699,0.3237255772041522,0.3,1.0,125.0,1.0,5875.0,1,0.0,1.0
700,700,0.6667484279341142,0.7,1.0,125.0,0.0,5875.0,0,0.0,0.0
701,701,0.8574229241367183,0.9,0.0,125.0,1.0,5875.0,0,1.0,0.0
702,702,0.5197344329770183,0.5,1.0,125.0,1.0,5875.0,1,0.0,1.0
703,703,0.7174866749657917,0.7,1.0,125.0,1.0,5875.0,1,0.0,1.0
704,704,0.6122881957435965,0.6,1.0,125.0,1.0,5875.0,1,0.0,1.0
705,705,0.6891893914050141,0.7,0.0,125.0,1.0,5875.0,0,1.0,0.0
706,706,0.3600274730788061,0.4,1.0,125.0,1.0,5875.0,1,0.0,1.0
707,707,-0.7033261734189094,-0.7,1.0,125.0,0.0,5875.0,0,1.0,1.0
708,708,-0.6205117141625456,-0.6,0.0,125.0,1.0,5875.0,0,0.0,1.0
709,709,0.828545182894504,0.8,1.0,125.0,1.0,5875.0,1,0.0,1.0
710,710,-0.8316091792700584,-0.8,0.0,125.0,1.0,5875.0,0,0.0,1.0
711,711,-0.6728144409602204,-0.7,1.0,125.0,0.0,5875.0,0,1.0,1.0
712,712,0.36989229564443205,0.4,1.0,125.0,0.0,5875.0,0,0.0,0.0
713,713,0.47548336190886065,0.5,1.0,125.0,1.0,5875.0,1,0.0,1.0
714,714,0.5959744660411875,0.6,1.0,125.0,0.0,5875.0,0,0.0,0.0
715,715,0.3078612402657609,0.3,1.0,125.0,0.0,5875.0,0,0.0,0.0
716,716,-0.48598543707422936,-0.5,1.0,125.0,0.0,5875.0,0,1.0,1.0
717,717,0.7634992146215037,0.8,1.0,125.0,1.0,5875.0,1,0.0,1.0
718,718,0.8006289149896978,0.8,0.0,125.0,0.0,5875.0,1,1.0,1.0
719,719,0.20590897758495752,0.2,1.0,125.0,1.0,5875.0,1,0.0,1.0
720,720,-0.7982931504805746,-0.8,0.0,125.0,1.0,5875.0,0,0.0,1.0
721,721,0.3229652580452017,0.3,1.0,125.0,1.0,5875.0,1,0.0,1.0
722,722,-0.878804447515704,-0.9,1.0,125.0,1.0,5875.0,1,1.0,0.0
723,723,-0.036332195507161824,-0.0,0.0,125.0,1.0,5875.0,0,0.0,1.0
724,724,-0.8215937072960231,-0.8,0.0,125.0,1.0,5875.0,0,0.0,1.0
725,725,0.06641842706558054,0.1,1.0,125.0,0.0,5875.0,0,0.0,0.0
726,726,0.05004456930569812,0.1,1.0,125.0,0.0,5875.0,0,0.0,0.0
727,727,-0.8851153479167814,-0.9,0.0,125.0,0.0,5875.0,1,0.0,0.0
728,728,-0.635367439288957,-0.6,0.0,125.0,1.0,5875.0,0,0.0,1.0
729,729,-0.2194024371436719,-0.2,0.0,125.0,1.0,5875.0,0,0.0,1.0
730,730,-0.7281374048819863,-0.7,1.0,125.0,1.0,5875.0,1,1.0,0.0
731,731,-0.2106754002410136,-0.2,0.0,125.0,1.0,5875.0,0,0.0,1.0
732,732,0.48877082582403075,0.5,1.0,125.0,0.0,5875.0,0,0.0,0.0
733,733,-0.6052623505234594,-0.6,1.0,125.0,0.0,5875.0,0,1.0,1.0
734,734,0.5037820919292592,0.5,1.0,125.0,1.0,5875.0,1,0.0,1.0
735,735,-0.44509578516378906,-0.4,0.0,125.0,0.0,5875.0,1,0.0,0.0
736,736,-0.04781192841836046,-0.0,0.0,125.0,1.0,5875.0,0,0.0,1.0
737,737,-0.8017419896816147,-0.8,1.0,125.0,0.0,5875.0,0,1.0,1.0
738,738,0.24989121002540993,0.2,1.0,125.0,1.0,5875.0,1,0.0,1.0
739,739,-0.22647347445506927,-0.2,0.0,125.0,1.0,5875.0,0,0.0,1.0
740,740,0.7690927638629491,0.8,0.0,125.0,1.0,5875.0,0,1.0,0.0
741,741,-0.6491241432069144,-0.6,1.0,125.0,1.0,5875.0,1,1.0,0.0
742,742,0.40623952734883495,0.4,0.0,125.0,0.0,5875.0,1,1.0,1.0
743,743,0.0010388909511408473,0.0,0.0,125.0,1.0,5875.0,0,1.0,0.0
744,744,-0.6471648348474179,-0.6,1.0,125.0,0.0,5875.0,0,1.0,1.0
745,745,-0.29527784022410364,-0.3,1.0,125.0,1.0,5875.0,1,1.0,0.0
746,746,-0.001815706952779661,-0.0,0.0,125.0,0.0,5875.0,1,0.0,0.0
747,747,0.012093249641624615,0.0,1.0,125.0,1.0,5875.0,1,0.0,1.0
748,748,-0.39799865676358315,-0.4,1.0,125.0,1.0,5875.0,1,1.0,0.0
749,749,-0.4925192422544231,-0.5,1.0,125.0,1.0,5875.0,1,1.0,0.0
750,750,0.18416523755083214,0.2,1.0,125.0,1.0,5875.0,1,0.0,1.0
751,751,-0.4200137488538945,-0.4,1.0,125.0,1.0,5875.0,1,1.0,0.0
752,752,0.7957320498888675,0.8,0.0,125.0,0.0,5875.0,1,1.0,1.0
753,753,0.007354821747304174,0.0,1.0,125.0,0.0,5875.0,0,0.0,0.0
754,754,-0.19380680848101317,-0.2,0.0,125.0,1.0,5875.0,0,0.0,1.0
755,755,0.1392363229129151,0.1,0.0,125.0,0.0,5875.0,1,1.0,1.0
756,756,0.3879136960865922,0.4,1.0,125.0,1.0,5875.0,1,0.0,1.0
757,757,-0.7088732933224788,-0.7,0.0,125.0,1.0,5875.0,0,0.0,1.0
758,758,0.5474996943027609,0.5,0.0,125.0,1.0,5875.0,0,1.0,0.0
759,759,0.4081897314207864,0.4,1.0,125.0,1.0,5875.0,1,0.0,1.0
760,760,0.10581896989431383,0.1,1.0,125.0,1.0,5875.0,1,0.0,1.0
761,761,0.2504091214640424,0.3,1.0,125.0,1.0,5875.0,1,0.0,1.0
762,762,-0.4922547868370218,-0.5,1.0,125.0,0.0,5875.0,0,1.0,1.0
763,763,-0.2562331515985635,-0.3,1.0,125.0,0.0,5875.0,0,1.0,1.0
764,764,-0.5901012690430616,-0.6,1.0,125.0,0.0,5875.0,0,1.0,1.0
765,765,-0.7510142075143703,-0.8,0.0,125.0,0.0,5875.0,1,0.0,0.0
766,766,0.7796546257423019,0.8,1.0,125.0,1.0,5875.0,1,0.0,1.0
767,767,0.35665602613147185,0.4,1.0,125.0,0.0,5875.0,0,0.0,0.0
768,768,0.7024103616068181,0.7,1.0,125.0,1.0,5875.0,1,0.0,1.0
769,769,0.29062624533510084,0.3,1.0,125.0,1.0,5875.0,1,0.0,1.0
770,770,0.882806252249399,0.9,0.0,125.0,0.0,5875.0,1,1.0,1.0
771,771,-0.6423121861120197,-0.6,0.0,125.0,1.0,5875.0,0,0.0,1.0
772,772,-0.5612452658295071,-0.6,0.0,125.0,0.0,5875.0,1,0.0,0.0
773,773,0.794409395293502,0.8,0.0,125.0,0.0,5875.0,1,1.0,1.0
774,774,0.6377969738578949,0.6,0.0,125.0,0.0,5875.0,1,1.0,1.0
775,775,-0.13419302108838504,-0.1,0.0,125.0,1.0,5875.0,0,0.0,1.0
776,776,-0.37979434506220555,-0.4,1.0,125.0,1.0,5875.0,1,1.0,0.0
777,777,0.22059864184176925,0.2,1.0,125.0,1.0,5875.0,1,0.0,1.0
778,778,-0.18440916020982123,-0.2,1.0,125.0,0.0,5875.0,0,1.0,1.0
779,779,0.7718257301907937,0.8,0.0,125.0,1.0,5875.0,0,1.0,0.0
780,780,-0.08591783160645905,-0.1,1.0,125.0,0.0,5875.0,0,1.0,1.0
781,781,0.7314209267688115,0.7,1.0,125.0,1.0,5875.0,1,0.0,1.0
782,782,0.8805259040100374,0.9,1.0,125.0,0.0,5875.0,0,0.0,0.0
783,783,0.1807942810647779,0.2,1.0,125.0,0.0,5875.0,0,0.0,0.0
784,784,0.8524877099769576,0.9,0.0,125.0,0.0,5875.0,1,1.0,1.0
785,785,-0.5151203531338193,-0.5,1.0,125.0,0.0,5875.0,0,1.0,1.0
786,786,-0.43520262370876245,-0.4,1.0,125.0,1.0,5875.0,1,1.0,0.0
787,787,-0.7639925690683121,-0.8,1.0,125.0,1.0,5875.0,1,1.0,0.0
788,788,-0.004641815951750394,-0.0,0.0,125.0,1.0,5875.0,0,0.0,1.0
789,789,0.2126923825454875,0.2,0.0,125.0,0.0,5875.0,1,1.0,1.0
790,790,0.3538487451909581,0.4,1.0,125.0,0.0,5875.0,0,0.0,0.0
791,791,0.3777010339480823,0.4,1.0,125.0,0.0,5875.0,0,0.0,0.0
792,792,-0.7677941541486968,-0.8,0.0,125.0,1.0,5875.0,0,0.0,1.0
793,793,-0.7240202274480488,-0.7,1.0,125.0,1.0,5875.0,1,1.0,0.0
794,794,0.45282167308303534,0.5,1.0,125.0,0.0,5875.0,0,0.0,0.0
795,795,-0.7754676686512909,-0.8,1.0,125.0,1.0,5875.0,1,1.0,0.0
796,796,-0.8386618946261504,-0.8,0.0,125.0,1.0,5875.0,0,0.0,1.0
797,797,-0.4272719219586622,-0.4,0.0,125.0,0.0,5875.0,1,0.0,0.0
798,798,0.2759854566634038,0.3,0.0,125.0,0.0,5875.0,1,1.0,1.0
799,799,0.3711654423676273,0.4,1.0,125.0,1.0,5875.0,1,0.0,1.0
800,800,-0.031208803370806892,-0.0,1.0,125.0,1.0,5875.0,1,1.0,0.0
801,801,0.6127365906020611,0.6,0.0,125.0,0.0,5875.0,1,1.0,1.0
802,802,0.5237842654129939,0.5,0.0,125.0,0.0,5875.0,1,1.0,1.0
803,803,-0.2791201240341995,-0.3,0.0,125.0,1.0,5875.0,0,0.0,1.0
804,804,0.8561725943615491,0.9,0.0,125.0,1.0,5875.0,0,1.0,0.0
805,805,0.7840974984288326,0.8,0.0,125.0,0.0,5875.0,1,1.0,1.0
806,806,0.3604850008305739,0.4,0.0,125.0,1.0,5875.0,0,1.0,0.0
807,807,0.4769114038170491,0.5,1.0,125.0,1.0,5875.0,1,0.0,1.0
808,808,0.8471866046541169,0.8,0.0,125.0,0.0,5875.0,1,1.0,1.0
809,809,0.6028756451107443,0.6,1.0,125.0,1.0,5875.0,1,0.0,1.0
810,810,0.31457264566747434,0.3,1.0,125.0,1.0,5875.0,1,0.0,1.0
811,811,-0.3742831478040598,-0.4,1.0,125.0,1.0,5875.0,1,1.0,0.0
812,812,0.8131644036107791,0.8,1.0,125.0,1.0,5875.0,1,0.0,1.0
813,813,-0.4979794681571536,-0.5,1.0,125.0,1.0,5875.0,1,1.0,0.0
814,814,0.7386501749014255,0.7,1.0,125.0,1.0,5875.0,1,0.0,1.0
815,815,-0.3039622283906901,-0.3,0.0,125.0,1.0,5875.0,0,0.0,1.0
816,816,-0.7423602089422434,-0.7,1.0,125.0,1.0,5875.0,1,1.0,0.0
817,817,-0.3262156727944734,-0.3,1.0,125.0,0.0,5875.0,0,1.0,1.0
818,818,0.7844516825997468,0.8,0.0,125.0,0.0,5875.0,1,1.0,1.0
819,819,-0.3700961253169247,-0.4,0.0,125.0,1.0,5875.0,0,0.0,1.0
820,820,0.6176487374802352,0.6,0.0,125.0,0.0,5875.0,1,1.0,1.0
821,821,0.2661449537737691,0.3,1.0,125.0,0.0,5875.0,0,0.0,0.0
822,822,-0.26209359720849945,-0.3,1.0,125.0,0.0,5875.0,0,1.0,1.0
823,823,0.748092129995611,0.7,1.0,125.0,1.0,5875.0,1,0.0,1.0
824,824,-0.140841639739687,-0.1,1.0,125.0,0.0,5875.0,0,1.0,1.0
825,825,-0.8781096442430222,-0.9,0.0,125.0,1.0,5875.0,0,0.0,1.0
826,826,0.8471426166359229,0.8,0.0,125.0,0.0,5875.0,1,1.0,1.0
827,827,0.38264450925003624,0.4,1.0,125.0,1.0,5875.0,1,0.0,1.0
828,828,-0.7958344456856027,-0.8,0.0,125.0,0.0,5875.0,1,0.0,0.0
829,829,0.5156314404795014,0.5,0.0,125.0,0.0,5875.0,1,1.0,1.0
830,830,0.00858718647195178,0.0,1.0,125.0,1.0,5875.0,1,0.0,1.0
831,831,0.08717903820120154,0.1,1.0,125.0,0.0,5875.0,0,0.0,0.0
832,832,5.535415385282683e-06,0.0,1.0,125.0,1.0,5875.0,1,0.0,1.0
833,833,-0.41009006598223,-0.4,0.0,125.0,1.0,5875.0,0,0.0,1.0
834,834,0.4369107512690914,0.4,0.0,125.0,1.0,5875.0,0,1.0,0.0
835,835,-0.305746764713686,-0.3,0.0,125.0,1.0,5875.0,0,0.0,1.0
836,836,0.37730398265316356,0.4,1.0,125.0,1.0,5875.0,1,0.0,1.0
837,837,0.5674471835137785,0.6,0.0,125.0,1.0,5875.0,0,1.0,0.0
838,838,0.5704345072764611,0.6,1.0,125.0,1.0,5875.0,1,0.0,1.0
839,839,-0.2189898490480754,-0.2,0.0,125.0,0.0,5875.0,1,0.0,0.0
840,840,0.22675647529503762,0.2,1.0,125.0,1.0,5875.0,1,0.0,1.0
841,841,0.11309485837598754,0.1,0.0,125.0,0.0,5875.0,1,1.0,1.0
842,842,-0.6818824473834594,-0.7,1.0,125.0,0.0,5875.0,0,1.0,1.0
843,843,0.2985734394176466,0.3,1.0,125.0,1.0,5875.0,1,0.0,1.0
844,844,-0.5832234436045463,-0.6,0.0,125.0,0.0,5875.0,1,0.0,0.0
845,845,0.06066797472402263,0.1,1.0,125.0,0.0,5875.0,0,0.0,0.0
846,846,0.31932196872697916,0.3,1.0,125.0,1.0,5875.0,1,0.0,1.0
847,847,0.3059987725707122,0.3,0.0,125.0,1.0,5875.0,0,1.0,0.0
848,848,-0.3664078952939177,-0.4,0.0,125.0,1.0,5875.0,0,0.0,1.0
849,849,-0.12126131598636014,-0.1,1.0,125.0,1.0,5875.0,1,1.0,0.0
850,850,-0.3974264462600994,-0.4,1.0,125.0,1.0,5875.0,1,1.0,0.0
851,851,-0.3026141955233773,-0.3,1.0,125.0,0.0,5875.0,0,1.0,1.0
852,852,0.2540677845225098,0.3,1.0,125.0,0.0,5875.0,0,0.0,0.0
853,853,-0.2666018786714389,-0.3,0.0,125.0,1.0,5875.0,0,0.0,1.0
854,854,0.39512483704400203,0.4,0.0,125.0,1.0,5875.0,0,1.0,0.0
855,855,-0.030087193389303213,-0.0,1.0,125.0,1.0,5875.0,1,1.0,0.0
856,856,0.564973459417022,0.6,0.0,125.0,0.0,5875.0,1,1.0,1.0
857,857,0.6960534604756353,0.7,0.0,125.0,0.0,5875.0,1,1.0,1.0
858,858,0.5181958026028538,0.5,0.0,125.0,0.0,5875.0,1,1.0,1.0
859,859,0.7644174191233329,0.8,0.0,125.0,0.0,5875.0,1,1.0,1.0
860,860,0.10792382588007599,0.1,1.0,125.0,1.0,5875.0,1,0.0,1.0
861,861,-0.38174897135225117,-0.4,0.0,125.0,1.0,5875.0,0,0.0,1.0
862,862,-0.26471055745886907,-0.3,0.0,125.0,1.0,5875.0,0,0.0,1.0
863,863,-0.7927515679359232,-0.8,0.0,125.0,1.0,5875.0,0,0.0,1.0
864,864,0.2880699724251311,0.3,1.0,125.0,0.0,5875.0,0,0.0,0.0
865,865,-0.13284050629874689,-0.1,0.0,125.0,0.0,5875.0,1,0.0,0.0
866,866,0.8964143573155835,0.9,1.0,125.0,0.0,5875.0,0,0.0,0.0
867,867,0.16981050313136603,0.2,0.0,125.0,1.0,5875.0,0,1.0,0.0
868,868,-0.16425757565234855,-0.2,1.0,125.0,0.0,5875.0,0,1.0,1.0
869,869,-0.8673047389470177,-0.9,0.0,125.0,0.0,5875.0,1,0.0,0.0
870,870,-0.3323419307032387,-0.3,1.0,125.0,0.0,5875.0,0,1.0,1.0
871,871,-0.17662159583554693,-0.2,1.0,125.0,1.0,5875.0,1,1.0,0.0
872,872,0.014262730362695875,0.0,1.0,125.0,0.0,5875.0,0,0.0,0.0
873,873,-0.8014701058101646,-0.8,1.0,125.0,0.0,5875.0,0,1.0,1.0
874,874,0.6951497418714002,0.7,1.0,125.0,1.0,5875.0,1,0.0,1.0
875,875,0.7185247596454737,0.7,1.0,125.0,1.0,5875.0,1,0.0,1.0
876,876,-0.7379194235811982,-0.7,1.0,125.0,1.0,5875.0,1,1.0,0.0
877,877,-0.5073483109810353,-0.5,1.0,125.0,0.0,5875.0,0,1.0,1.0
878,878,-0.36327932313354117,-0.4,0.0,125.0,1.0,5875.0,0,0.0,1.0
879,879,-0.2972730583097827,-0.3,1.0,125.0,1.0,5875.0,1,1.0,0.0
880,880,-0.22828904815656093,-0.2,0.0,125.0,1.0,5875.0,0,0.0,1.0
881,881,-0.4158045542729823,-0.4,0.0,125.0,1.0,5875.0,0,0.0,1.0
882,882,-0.10548526990767837,-0.1,0.0,125.0,1.0,5875.0,0,0.0,1.0
883,883,-0.1715140781810186,-0.2,0.0,125.0,1.0,5875.0,0,0.0,1.0
884,884,0.6350260021483566,0.6,0.0,125.0,1.0,5875.0,0,1.0,0.0
885,885,-0.26671134738687396,-0.3,1.0,125.0,1.0,5875.0,1,1.0,0.0
886,886,0.30534753674433046,0.3,0.0,125.0,1.0,5875.0,0,1.0,0.0
887,887,0.6334047155265708,0.6,1.0,125.0,0.0,5875.0,0,0.0,0.0
888,888,0.07595409210712134,0.1,0.0,125.0,0.0,5875.0,1,1.0,1.0
889,889,-0.8262070766470979,-0.8,1.0,125.0,0.0,5875.0,0,1.0,1.0
890,890,-0.4022014283061108,-0.4,1.0,125.0,0.0,5875.0,0,1.0,1.0
891,891,0.6490625695361049,0.6,0.0,125.0,0.0,5875.0,1,1.0,1.0
892,892,0.2570507295179537,0.3,1.0,125.0,0.0,5875.0,0,0.0,0.0
893,893,-0.543212242756375,-0.5,1.0,125.0,1.0,5875.0,1,1.0,0.0
894,894,-0.3514371265896943,-0.4,0.0,125.0,1.0,5875.0,0,0.0,1.0
895,895,0.09183002909726612,0.1,0.0,125.0,1.0,5875.0,0,1.0,0.0
896,896,-0.254906203283639,-0.3,1.0,125.0,1.0,5875.0,1,1.0,0.0
897,897,0.7259409053076843,0.7,0.0,125.0,0.0,5875.0,1,1.0,1.0
898,898,-0.4453303261162358,-0.4,1.0,125.0,1.0,5875.0,1,1.0,0.0
899,899,-0.48520676535641427,-0.5,0.0,125.0,0.0,5875.0,1,0.0,0.0
900,900,0.8400745594351567,0.8,1.0,125.0,1.0,5875.0,1,0.0,1.0
901,901,-0.2312334491478144,-0.2,0.0,125.0,1.0,5875.0,0,0.0,1.0
902,902,-0.5999834995793669,-0.6,1.0,125.0,1.0,5875.0,1,1.0,0.0
903,903,0.1433710615636511,0.1,1.0,125.0,0.0,5875.0,0,0.0,0.0
904,904,0.8030834952558038,0.8,0.0,125.0,0.0,5875.0,1,1.0,1.0
905,905,0.1529122386127978,0.2,0.0,125.0,1.0,5875.0,0,1.0,0.0
906,906,0.3277795072595743,0.3,0.0,125.0,1.0,5875.0,0,1.0,0.0
907,907,-0.03725138452345067,-0.0,1.0,125.0,0.0,5875.0,0,1.0,1.0
908,908,0.5430783720053421,0.5,1.0,125.0,1.0,5875.0,1,0.0,1.0
909,909,0.6911150718489311,0.7,0.0,125.0,0.0,5875.0,1,1.0,1.0
910,910,0.6498062750406436,0.6,1.0,125.0,1.0,5875.0,1,0.0,1.0
911,911,-0.7389220046526588,-0.7,1.0,125.0,1.0,5875.0,1,1.0,0.0
912,912,-0.7944757872599931,-0.8,0.0,125.0,1.0,5875.0,0,0.0,1.0
913,913,0.26834862110514723,0.3,0.0,125.0,0.0,5875.0,1,1.0,1.0
914,914,-0.20498448134841873,-0.2,0.0,125.0,0.0,5875.0,1,0.0,0.0
915,915,0.13795521693144341,0.1,1.0,125.0,1.0,5875.0,1,0.0,1.0
916,916,-0.7467199864324116,-0.7,0.0,125.0,1.0,5875.0,0,0.0,1.0
917,917,0.6919471764468476,0.7,1.0,125.0,0.0,5875.0,0,0.0,0.0
918,918,0.6624422069285861,0.7,0.0,125.0,0.0,5875.0,1,1.0,1.0
919,919,-0.39565760902244074,-0.4,1.0,125.0,1.0,5875.0,1,1.0,0.0
920,920,0.07359510492414367,0.1,0.0,125.0,0.0,5875.0,1,1.0,1.0
921,921,0.4342679746921446,0.4,1.0,125.0,1.0,5875.0,1,0.0,1.0
922,922,-0.08434305928221131,-0.1,1.0,125.0,1.0,5875.0,1,1.0,0.0
923,923,-0.42302692373397127,-0.4,0.0,125.0,1.0,5875.0,0,0.0,1.0
924,924,0.675450797389593,0.7,0.0,125.0,0.0,5875.0,1,1.0,1.0
925,925,-0.4727440072835069,-0.5,0.0,125.0,0.0,5875.0,1,0.0,0.0
926,926,-0.2621473059066769,-0.3,1.0,125.0,0.0,5875.0,0,1.0,1.0
927,927,0.6936654911813988,0.7,1.0,125.0,1.0,5875.0,1,0.0,1.0
928,928,-0.8216920729595366,-0.8,0.0,125.0,1.0,5875.0,0,0.0,1.0
929,929,-0.380123532459935,-0.4,1.0,125.0,0.0,5875.0,0,1.0,1.0
930,930,0.7122783909919598,0.7,0.0,125.0,1.0,5875.0,0,1.0,0.0
931,931,0.44591389620016797,0.4,0.0,125.0,0.0,5875.0,1,1.0,1.0
932,932,-0.22291905648494847,-0.2,1.0,125.0,1.0,5875.0,1,1.0,0.0
933,933,-0.4678602991622345,-0.5,0.0,125.0,1.0,5875.0,0,0.0,1.0
934,934,0.14026953405239706,0.1,0.0,125.0,1.0,5875.0,0,1.0,0.0
935,935,-0.775211664305893,-0.8,0.0,125.0,0.0,5875.0,1,0.0,0.0
936,936,-0.26032496095899316,-0.3,0.0,125.0,1.0,5875.0,0,0.0,1.0
937,937,-0.2580479482692636,-0.3,1.0,125.0,1.0,5875.0,1,1.0,0.0
938,938,-0.7788277322923399,-0.8,0.0,125.0,1.0,5875.0,0,0.0,1.0
939,939,-0.8973536286708013,-0.9,0.0,125.0,0.0,5875.0,1,0.0,0.0
940,940,0.009333481471398564,0.0,1.0,125.0,1.0,5875.0,1,0.0,1.0
941,941,0.7984481683836105,0.8,1.0,125.0,1.0,5875.0,1,0.0,1.0
942,942,-0.5963885029781255,-0.6,0.0,125.0,1.0,5875.0,0,0.0,1.0
943,943,-0.4558785967770869,-0.5,1.0,125.0,1.0,5875.0,1,1.0,0.0
944,944,0.6138537646414873,0.6,1.0,125.0,1.0,5875.0,1,0.0,1.0
945,945,0.08174037393634837,0.1,1.0,125.0,0.0,5875.0,0,0.0,0.0
946,946,-0.13012080077577737,-0.1,1.0,125.0,1.0,5875.0,1,1.0,0.0
947,947,0.5831787953917075,0.6,1.0,125.0,1.0,5875.0,1,0.0,1.0
948,948,0.24327995904534772,0.2,0.0,125.0,1.0,5875.0,0,1.0,0.0
949,949,0.42830152076882666,0.4,0.0,125.0,0.0,5875.0,1,1.0,1.0
950,950,-0.22040578727728166,-0.2,0.0,125.0,1.0,5875.0,0,0.0,1.0
951,951,-0.19412196392073755,-0.2,1.0,125.0,0.0,5875.0,0,1.0,1.0
952,952,-0.8592839622981301,-0.9,1.0,125.0,1.0,5875.0,1,1.0,0.0
953,953,0.6923310576587435,0.7,0.0,125.0,0.0,5875.0,1,1.0,1.0
954,954,-0.09980830443965072,-0.1,1.0,125.0,1.0,5875.0,1,1.0,0.0
955,955,0.05207065382898057,0.1,1.0,125.0,0.0,5875.0,0,0.0,0.0
956,956,-0.7573566644328921,-0.8,1.0,125.0,0.0,5875.0,0,1.0,1.0
957,957,0.14366887133822825,0.1,0.0,125.0,1.0,5875.0,0,1.0,0.0
958,958,-0.4780749185320357,-0.5,0.0,125.0,1.0,2745.0,0,0.0,1.0
959,959,-0.20418410202525472,-0.2,1.0,125.0,1.0,5875.0,1,1.0,0.0
960,960,-0.7494978277664378,-0.7,0.0,125.0,1.0,5875.0,0,0.0,1.0
961,961,-0.5973694926728872,-0.6,1.0,125.0,1.0,5875.0,1,1.0,0.0
962,962,0.486899747552893,0.5,0.0,125.0,1.0,5875.0,0,1.0,0.0
963,963,-0.748653820197553,-0.7,1.0,125.0,1.0,5875.0,1,1.0,0.0
964,964,-0.5658224005975695,-0.6,1.0,125.0,0.0,5875.0,0,1.0,1.0
965,965,-0.44682639138781854,-0.4,1.0,125.0,0.0,5875.0,0,1.0,1.0
966,966,-0.46247276426212436,-0.5,0.0,125.0,1.0,5875.0,0,0.0,1.0
967,967,0.8251092098092488,0.8,0.0,125.0,0.0,5875.0,1,1.0,1.0
968,968,-0.43234293016942454,-0.4,1.0,125.0,1.0,5875.0,1,1.0,0.0
969,969,0.7308518289466474,0.7,1.0,125.0,1.0,5875.0,1,0.0,1.0
970,970,0.7116785311112538,0.7,1.0,125.0,1.0,5875.0,1,0.0,1.0
971,971,0.045450730975647446,0.0,1.0,125.0,1.0,5875.0,1,0.0,1.0
972,972,0.028116195245420417,0.0,1.0,125.0,0.0,5875.0,0,0.0,0.0
973,973,0.1534855306443631,0.2,0.0,125.0,0.0,5875.0,1,1.0,1.0
974,974,0.38781756176699467,0.4,1.0,125.0,0.0,5875.0,0,0.0,0.0
975,975,0.079351990956677,0.1,1.0,125.0,1.0,5875.0,1,0.0,1.0
976,976,-0.508922216698823,-0.5,0.0,125.0,1.0,5875.0,0,0.0,1.0
977,977,-0.47032703860551967,-0.5,1.0,125.0,1.0,5875.0,1,1.0,0.0
978,978,-0.8053606520893762,-0.8,0.0,125.0,1.0,5875.0,0,0.0,1.0
979,979,0.10641442824518788,0.1,1.0,125.0,1.0,5875.0,1,0.0,1.0
980,980,-0.7175815351236197,-0.7,1.0,125.0,1.0,5875.0,1,1.0,0.0
981,981,0.23007972082802197,0.2,1.0,125.0,1.0,5875.0,1,0.0,1.0
982,982,-0.4038383874190274,-0.4,0.0,125.0,1.0,5875.0,0,0.0,1.0
983,983,0.40562533682265733,0.4,0.0,125.0,1.0,5875.0,0,1.0,0.0
984,984,0.7963221137138611,0.8,0.0,125.0,1.0,5875.0,0,1.0,0.0
985,985,-0.12823348890172748,-0.1,0.0,125.0,0.0,5875.0,1,0.0,0.0
986,986,0.8145762604151251,0.8,0.0,125.0,0.0,5875.0,1,1.0,1.0
987,987,0.3443561672397054,0.3,0.0,125.0,0.0,5875.0,1,1.0,1.0
988,988,-0.11915681203874506,-0.1,1.0,125.0,0.0,5875.0,0,1.0,1.0
989,989,-0.5106800219621995,-0.5,0.0,125.0,0.0,5875.0,1,0.0,0.0
990,990,-0.2977045854145405,-0.3,0.0,125.0,1.0,5875.0,0,0.0,1.0
991,991,0.22622474760164824,0.2,0.0,125.0,0.0,5875.0,1,1.0,1.0
992,992,0.13397997524272787,0.1,1.0,125.0,1.0,5875.0,1,0.0,1.0
993,993,0.37021892626337316,0.4,1.0,125.0,1.0,5875.0,1,0.0,1.0
994,994,0.409345898642956,0.4,1.0,125.0,0.0,5875.0,0,0.0,0.0
995,995,0.44314021576352325,0.4,0.0,125.0,0.0,5875.0,1,1.0,1.0
996,996,0.7815785513616192,0.8,1.0,125.0,0.0,5875.0,0,0.0,0.0
997,997,-0.4126620564648596,-0.4,1.0,125.0,0.0,5875.0,0,1.0,1.0
998,998,-0.5237154883196917,-0.5,0.0,125.0,1.0,5875.0,0,0.0,1.0
999,999,0.8415259051494363,0.8,1.0,125.0,1.0,5875.0,1,0.0,1.0
1000,1000,0.3094541487011414,0.3,0.0,125.0,1.0,5875.0,0,1.0,0.0
1001,1001,0.19804139317824576,0.2,0.0,125.0,1.0,5875.0,0,1.0,0.0
1002,1002,-0.7016945217201704,-0.7,0.0,125.0,1.0,2845.0,0,0.0,1.0
1003,1003,-0.7315150156974513,-0.7,1.0,125.0,1.0,5875.0,1,1.0,0.0
1004,1004,0.40762798888696816,0.4,1.0,125.0,0.0,5875.0,0,0.0,0.0
1005,1005,-0.5602663726384949,-0.6,0.0,125.0,1.0,5875.0,0,0.0,1.0
1006,1006,-0.6023705451274011,-0.6,1.0,125.0,1.0,5875.0,1,1.0,0.0
1007,1007,0.2041071063206571,0.2,1.0,125.0,0.0,5875.0,0,0.0,0.0
1008,1008,0.5376053863413423,0.5,1.0,125.0,1.0,5875.0,1,0.0,1.0
1009,1009,-0.4966267545460222,-0.5,0.0,125.0,1.0,5875.0,0,0.0,1.0
1010,1010,0.350395512673343,0.4,0.0,125.0,1.0,5875.0,0,1.0,0.0
1011,1011,0.8090325938771633,0.8,0.0,125.0,1.0,5875.0,0,1.0,0.0
1012,1012,-0.856804695746488,-0.9,1.0,125.0,1.0,5875.0,1,1.0,0.0
1013,1013,-0.7386801641258168,-0.7,0.0,125.0,0.0,5875.0,1,0.0,0.0
1014,1014,0.4739132419903983,0.5,0.0,125.0,0.0,5875.0,1,1.0,1.0
1015,1015,0.6025667171413823,0.6,1.0,125.0,1.0,5875.0,1,0.0,1.0
1016,1016,-0.3925229970684244,-0.4,1.0,125.0,1.0,5875.0,1,1.0,0.0
1017,1017,-0.5838261817196262,-0.6,1.0,125.0,1.0,5875.0,1,1.0,0.0
1018,1018,0.38991335397312776,0.4,0.0,125.0,0.0,5875.0,1,1.0,1.0
1019,1019,-0.7510030057977364,-0.8,1.0,125.0,0.0,5875.0,0,1.0,1.0
1020,1020,-0.22019359100911995,-0.2,1.0,125.0,0.0,5875.0,0,1.0,1.0
1021,1021,0.5158585734740725,0.5,1.0,125.0,0.0,5875.0,0,0.0,0.0
1022,1022,0.7355784804640774,0.7,1.0,125.0,1.0,5875.0,1,0.0,1.0
1023,1023,-0.1543489769717019,-0.2,0.0,125.0,0.0,5875.0,1,0.0,0.0
1024,1024,-0.6880654146592768,-0.7,0.0,125.0,0.0,2815.0,1,0.0,0.0
1025,1025,-0.7838467436060935,-0.8,1.0,125.0,0.0,5875.0,0,1.0,1.0
1026,1026,0.48934226230808286,0.5,1.0,125.0,0.0,5875.0,0,0.0,0.0
1027,1027,0.24005612870838855,0.2,0.0,125.0,1.0,5875.0,0,1.0,0.0
1028,1028,0.4631043567847367,0.5,1.0,125.0,0.0,5875.0,0,0.0,0.0
1029,1029,0.743462010605023,0.7,0.0,125.0,0.0,5875.0,1,1.0,1.0
1030,1030,0.8937790837917025,0.9,1.0,125.0,0.0,5875.0,0,0.0,0.0
1031,1031,-0.7975099081069564,-0.8,0.0,125.0,0.0,2685.0,1,0.0,0.0
1032,1032,0.8418255445152946,0.8,0.0,125.0,0.0,5875.0,1,1.0,1.0
1033,1033,0.5113251466658407,0.5,0.0,125.0,0.0,5875.0,1,1.0,1.0
1034,1034,-0.15126825348321338,-0.2,0.0,125.0,0.0,5875.0,1,0.0,0.0
1035,1035,-0.8931864372931493,-0.9,0.0,125.0,1.0,5875.0,0,0.0,1.0
1036,1036,-0.7572303709138204,-0.8,0.0,125.0,0.0,2655.0,1,0.0,0.0
1037,1037,-0.2605871076758164,-0.3,1.0,125.0,0.0,5875.0,0,1.0,1.0
1038,1038,0.6233139428192661,0.6,1.0,125.0,1.0,5875.0,1,0.0,1.0
1039,1039,-0.19657338189645768,-0.2,0.0,125.0,1.0,5875.0,0,0.0,1.0
1040,1040,-0.406834677391115,-0.4,0.0,125.0,0.0,5875.0,1,0.0,0.0
1041,1041,-0.8903132836654652,-0.9,1.0,125.0,1.0,5875.0,1,1.0,0.0
1042,1042,-0.4742193121301845,-0.5,1.0,125.0,1.0,5875.0,1,1.0,0.0
1043,1043,-0.09483641324446124,-0.1,1.0,125.0,1.0,5875.0,1,1.0,0.0
1044,1044,0.8462438070589932,0.8,1.0,125.0,1.0,5875.0,1,0.0,1.0
1045,1045,0.44594688573553565,0.4,0.0,125.0,1.0,5875.0,0,1.0,0.0
1046,1046,-0.37809650982132836,-0.4,1.0,125.0,1.0,5875.0,1,1.0,0.0
1047,1047,0.7284008640426448,0.7,0.0,125.0,1.0,5875.0,0,1.0,0.0
1048,1048,-0.25239562805651006,-0.3,0.0,125.0,0.0,5875.0,1,0.0,0.0
1049,1049,0.055083038693452546,0.1,0.0,125.0,1.0,5875.0,0,1.0,0.0
1050,1050,0.013574586067548688,0.0,0.0,125.0,1.0,5875.0,0,1.0,0.0
1051,1051,0.08903829020480913,0.1,1.0,125.0,1.0,5875.0,1,0.0,1.0
1052,1052,-0.1494554965338154,-0.1,0.0,125.0,0.0,5875.0,1,0.0,0.0
1053,1053,0.04278646981834133,0.0,0.0,125.0,0.0,5875.0,1,1.0,1.0
1054,1054,-0.46444629519103475,-0.5,0.0,125.0,0.0,5875.0,1,0.0,0.0
1055,1055,-0.7808231013704003,-0.8,0.0,125.0,0.0,5875.0,1,0.0,0.0
1056,1056,0.10489273791743903,0.1,1.0,125.0,1.0,5875.0,1,0.0,1.0
1057,1057,0.5077056322427335,0.5,0.0,125.0,1.0,5875.0,0,1.0,0.0
1058,1058,0.12536481781955822,0.1,0.0,125.0,1.0,5875.0,0,1.0,0.0
1059,1059,0.0002848110001223425,0.0,0.0,125.0,1.0,5875.0,0,1.0,0.0
1060,1060,0.27457420047669034,0.3,1.0,125.0,1.0,5875.0,1,0.0,1.0
1061,1061,-0.32115519551032534,-0.3,0.0,125.0,0.0,5875.0,1,0.0,0.0
1062,1062,-0.8990435361103712,-0.9,0.0,125.0,1.0,5875.0,0,0.0,1.0
1063,1063,0.1910552274161169,0.2,0.0,125.0,1.0,5875.0,0,1.0,0.0
1064,1064,0.4426474293034627,0.4,1.0,125.0,1.0,5875.0,1,0.0,1.0
1065,1065,0.6453673938000141,0.6,0.0,125.0,0.0,5875.0,1,1.0,1.0
1066,1066,0.6544046346091922,0.7,0.0,125.0,1.0,5875.0,0,1.0,0.0
1067,1067,-0.3276405614097264,-0.3,0.0,125.0,1.0,5875.0,0,0.0,1.0
1068,1068,0.1404700604028536,0.1,0.0,125.0,1.0,5875.0,0,1.0,0.0
1069,1069,-0.06891863883343341,-0.1,1.0,125.0,1.0,5875.0,1,1.0,0.0
1070,1070,-0.5236825764832774,-0.5,0.0,125.0,0.0,5875.0,1,0.0,0.0
1071,1071,-0.5047580858648686,-0.5,0.0,125.0,0.0,5875.0,1,0.0,0.0
1072,1072,-0.23835664244499077,-0.2,1.0,125.0,0.0,5875.0,0,1.0,1.0
1073,1073,0.18077268656302536,0.2,1.0,125.0,1.0,2795.0,1,0.0,1.0
1074,1074,0.6921014699798765,0.7,1.0,125.0,0.0,5875.0,0,0.0,0.0
1075,1075,-0.7435079603087904,-0.7,0.0,125.0,1.0,5875.0,0,0.0,1.0
1076,1076,-0.665492872967109,-0.7,1.0,125.0,0.0,5875.0,0,1.0,1.0
1077,1077,0.03483126800075531,0.0,1.0,125.0,1.0,5875.0,1,0.0,1.0
1078,1078,0.01696090605826661,0.0,1.0,125.0,0.0,5875.0,0,0.0,0.0
1079,1079,0.19239752470581017,0.2,1.0,125.0,0.0,5875.0,0,0.0,0.0
1080,1080,0.8205123898612293,0.8,0.0,125.0,1.0,5875.0,0,1.0,0.0
1081,1081,0.05291780173775851,0.1,1.0,125.0,0.0,5875.0,0,0.0,0.0
1082,1082,0.7273317878684843,0.7,0.0,125.0,1.0,5875.0,0,1.0,0.0
1083,1083,0.27308766620994407,0.3,0.0,125.0,0.0,5875.0,1,1.0,1.0
1084,1084,0.02280585355037712,0.0,1.0,125.0,0.0,5875.0,0,0.0,0.0
1085,1085,0.3781742612896445,0.4,1.0,125.0,1.0,5875.0,1,0.0,1.0
1086,1086,0.4777626696788758,0.5,1.0,125.0,1.0,5875.0,1,0.0,1.0
1087,1087,0.5413428546406523,0.5,1.0,125.0,1.0,5875.0,1,0.0,1.0
1088,1088,-0.009211280966617719,-0.0,1.0,125.0,1.0,5875.0,1,1.0,0.0
1089,1089,-0.7546163035574746,-0.8,0.0,125.0,0.0,2815.0,1,0.0,0.0
1090,1090,-0.33744904391430364,-0.3,0.0,125.0,1.0,5875.0,0,0.0,1.0
1091,1091,0.691319047582195,0.7,0.0,125.0,0.0,5875.0,1,1.0,1.0
1092,1092,-0.6424892121436636,-0.6,0.0,125.0,1.0,5875.0,0,0.0,1.0
1093,1093,-0.1635718033133785,-0.2,0.0,125.0,1.0,5875.0,0,0.0,1.0
1094,1094,-0.4883713329982951,-0.5,1.0,125.0,1.0,5875.0,1,1.0,0.0
1095,1095,0.3321568052827616,0.3,0.0,125.0,0.0,5875.0,1,1.0,1.0
1096,1096,0.5739355749353524,0.6,1.0,125.0,1.0,5875.0,1,0.0,1.0
1097,1097,-0.07179418883124178,-0.1,0.0,125.0,1.0,5875.0,0,0.0,1.0
1098,1098,0.10442204586615167,0.1,0.0,125.0,0.0,5875.0,1,1.0,1.0
1099,1099,0.3331599851349619,0.3,1.0,125.0,1.0,5875.0,1,0.0,1.0
1100,1100,0.8064031065665122,0.8,1.0,125.0,0.0,5875.0,0,0.0,0.0
1101,1101,0.8205330938721401,0.8,0.0,125.0,0.0,5875.0,1,1.0,1.0
1102,1102,-0.3961320729982968,-0.4,0.0,125.0,0.0,5875.0,1,0.0,0.0
1103,1103,0.8639813649852129,0.9,0.0,125.0,1.0,5875.0,0,1.0,0.0
1104,1104,0.3580069910802467,0.4,0.0,125.0,1.0,5875.0,0,1.0,0.0
1105,1105,0.6955819599171892,0.7,0.0,125.0,0.0,5875.0,1,1.0,1.0
1106,1106,0.1346883114354619,0.1,0.0,125.0,0.0,5875.0,1,1.0,1.0
1107,1107,-0.2776198322880483,-0.3,1.0,125.0,0.0,5875.0,0,1.0,1.0
1108,1108,-0.5454755455250424,-0.5,0.0,125.0,1.0,5875.0,0,0.0,1.0
1109,1109,0.6570603662520239,0.7,1.0,125.0,0.0,5875.0,0,0.0,0.0
1110,1110,0.853803310679281,0.9,1.0,125.0,1.0,5875.0,1,0.0,1.0
1111,1111,0.7982669936263652,0.8,0.0,125.0,1.0,5875.0,0,1.0,0.0
1112,1112,0.033102956434727604,0.0,0.0,125.0,0.0,5875.0,1,1.0,1.0
1113,1113,-0.7023721808666488,-0.7,1.0,125.0,0.0,5875.0,0,1.0,1.0
1114,1114,0.06738574534019337,0.1,0.0,125.0,0.0,5875.0,1,1.0,1.0
1115,1115,-0.05497719651794575,-0.1,0.0,125.0,1.0,5875.0,0,0.0,1.0
1116,1116,0.2093766329146921,0.2,0.0,125.0,1.0,5875.0,0,1.0,0.0
1117,1117,0.7962111669925728,0.8,0.0,125.0,0.0,5875.0,1,1.0,1.0
1118,1118,-0.6411369857978375,-0.6,0.0,125.0,0.0,5875.0,1,0.0,0.0
1119,1119,-0.6143495988419464,-0.6,1.0,125.0,1.0,5875.0,1,1.0,0.0
1120,1120,0.47644906852568536,0.5,0.0,125.0,1.0,5875.0,0,1.0,0.0
1121,1121,-0.7489962785872804,-0.7,0.0,125.0,1.0,5875.0,0,0.0,1.0
1122,1122,0.5383494168325657,0.5,0.0,125.0,1.0,5875.0,0,1.0,0.0
1123,1123,0.007280897009054321,0.0,1.0,125.0,0.0,5875.0,0,0.0,0.0
1124,1124,0.07307561349142255,0.1,0.0,125.0,1.0,5875.0,0,1.0,0.0
1125,1125,-0.5653754197170417,-0.6,0.0,125.0,1.0,5875.0,0,0.0,1.0
1126,1126,-0.33972286479915803,-0.3,0.0,125.0,1.0,5875.0,0,0.0,1.0
1127,1127,-0.45306655142151236,-0.5,0.0,125.0,0.0,5875.0,1,0.0,0.0
1128,1128,-0.4702388989363295,-0.5,1.0,125.0,0.0,5875.0,0,1.0,1.0
1129,1129,0.8712044309149122,0.9,1.0,125.0,1.0,5875.0,1,0.0,1.0
1130,1130,-0.054648342114766435,-0.1,0.0,125.0,1.0,5875.0,0,0.0,1.0
1131,1131,0.7694231256949481,0.8,0.0,125.0,0.0,5875.0,1,1.0,1.0
1132,1132,0.1658432938668727,0.2,0.0,125.0,1.0,5875.0,0,1.0,0.0
1133,1133,-0.10361715692996099,-0.1,1.0,125.0,0.0,5875.0,0,1.0,1.0
1134,1134,0.8845624910215354,0.9,1.0,125.0,1.0,5875.0,1,0.0,1.0
1135,1135,0.5873987885084463,0.6,1.0,125.0,1.0,5875.0,1,0.0,1.0
1136,1136,0.5948895036132021,0.6,1.0,125.0,1.0,5875.0,1,0.0,1.0
1137,1137,-0.49353222742388314,-0.5,1.0,125.0,1.0,5875.0,1,1.0,0.0
1138,1138,0.23665898358537174,0.2,1.0,125.0,1.0,5875.0,1,0.0,1.0
1139,1139,-0.21713048671413004,-0.2,0.0,125.0,1.0,5875.0,0,0.0,1.0
1140,1140,0.34562609333872973,0.3,0.0,125.0,1.0,5875.0,0,1.0,0.0
1141,1141,0.08884987639296393,0.1,1.0,125.0,1.0,5875.0,1,0.0,1.0
1142,1142,0.17584738763454266,0.2,0.0,125.0,1.0,5875.0,0,1.0,0.0
1143,1143,0.061166869216252584,0.1,0.0,125.0,0.0,5875.0,1,1.0,1.0
1144,1144,-0.7826800102795956,-0.8,1.0,125.0,0.0,5875.0,0,1.0,1.0
1145,1145,0.16094696647433782,0.2,0.0,125.0,0.0,5875.0,1,1.0,1.0
1146,1146,-0.8798936206560586,-0.9,1.0,125.0,1.0,5875.0,1,1.0,0.0
1147,1147,-0.014209000248871062,-0.0,0.0,125.0,1.0,5875.0,0,0.0,1.0
1148,1148,0.66077910174073,0.7,0.0,125.0,0.0,5875.0,1,1.0,1.0
1149,1149,-0.44394859163258366,-0.4,0.0,125.0,0.0,5875.0,1,0.0,0.0
1150,1150,0.24232049089827135,0.2,1.0,125.0,1.0,5875.0,1,0.0,1.0
1151,1151,0.16891378191872108,0.2,1.0,125.0,0.0,5875.0,0,0.0,0.0
1152,1152,0.3217242260961898,0.3,1.0,125.0,0.0,5875.0,0,0.0,0.0
1153,1153,-0.5618619607185451,-0.6,0.0,125.0,0.0,5875.0,1,0.0,0.0
1154,1154,0.6447146789150607,0.6,0.0,125.0,1.0,5875.0,0,1.0,0.0
1155,1155,0.7679253116408599,0.8,1.0,125.0,1.0,5875.0,1,0.0,1.0
1156,1156,-0.39774630025046465,-0.4,1.0,125.0,0.0,5875.0,0,1.0,1.0
1157,1157,-0.627371247308943,-0.6,0.0,125.0,1.0,5875.0,0,0.0,1.0
1158,1158,-0.260431013542998,-0.3,1.0,125.0,1.0,5875.0,1,1.0,0.0
1159,1159,-0.5186723087028455,-0.5,1.0,125.0,0.0,5875.0,0,1.0,1.0
1160,1160,0.4249295047347229,0.4,0.0,125.0,1.0,5875.0,0,1.0,0.0
1161,1161,0.33854173279862076,0.3,0.0,125.0,1.0,5875.0,0,1.0,0.0
1162,1162,0.33945283595526543,0.3,1.0,125.0,1.0,5875.0,1,0.0,1.0
1163,1163,-0.6920235962037358,-0.7,0.0,125.0,0.0,5875.0,1,0.0,0.0
1164,1164,-0.005199993117005475,-0.0,0.0,125.0,0.0,5875.0,1,0.0,0.0
1165,1165,-0.12794756298192778,-0.1,1.0,125.0,0.0,5875.0,0,1.0,1.0
1166,1166,-0.41301964469371594,-0.4,1.0,125.0,0.0,5875.0,0,1.0,1.0
1167,1167,-0.2845977919840814,-0.3,1.0,125.0,0.0,5875.0,0,1.0,1.0
1168,1168,-0.7467529396960009,-0.7,0.0,125.0,1.0,5875.0,0,0.0,1.0
1169,1169,0.36827190095149354,0.4,0.0,125.0,1.0,5875.0,0,1.0,0.0
1170,1170,-0.07927456794318943,-0.1,0.0,125.0,0.0,5875.0,1,0.0,0.0
1171,1171,0.29550726262283755,0.3,0.0,125.0,0.0,5875.0,1,1.0,1.0
1172,1172,0.5191054149928912,0.5,0.0,125.0,1.0,5875.0,0,1.0,0.0
1173,1173,-0.3166843602792304,-0.3,1.0,125.0,1.0,5875.0,1,1.0,0.0
1174,1174,0.010327061201355292,0.0,0.0,125.0,1.0,5875.0,0,1.0,0.0
1175,1175,-0.09961248796012478,-0.1,0.0,125.0,1.0,2795.0,0,0.0,1.0
1176,1176,0.4597988555536817,0.5,0.0,125.0,1.0,5875.0,0,1.0,0.0
1177,1177,-0.6954331000158603,-0.7,1.0,125.0,1.0,5875.0,1,1.0,0.0
1178,1178,0.4488002873867155,0.4,0.0,125.0,1.0,5875.0,0,1.0,0.0
1179,1179,-0.39166795967012313,-0.4,0.0,125.0,1.0,5875.0,0,0.0,1.0
1180,1180,0.1482538359091622,0.1,1.0,125.0,0.0,5875.0,0,0.0,0.0
1181,1181,-0.654075011165997,-0.7,1.0,125.0,0.0,5875.0,0,1.0,1.0
1182,1182,0.6594892419243085,0.7,0.0,125.0,0.0,5875.0,1,1.0,1.0
1183,1183,-0.5693024783704421,-0.6,1.0,125.0,0.0,5875.0,0,1.0,1.0
1184,1184,-0.5158701675723563,-0.5,1.0,125.0,0.0,5875.0,0,1.0,1.0
1185,1185,-0.7411097616207434,-0.7,0.0,125.0,0.0,5875.0,1,0.0,0.0
1186,1186,0.3277136920610967,0.3,1.0,125.0,0.0,5875.0,0,0.0,0.0
1187,1187,-0.3879049119231187,-0.4,0.0,125.0,1.0,5875.0,0,0.0,1.0
1188,1188,0.20210525226630816,0.2,0.0,125.0,1.0,5875.0,0,1.0,0.0
1189,1189,0.5734547822614785,0.6,1.0,125.0,0.0,5875.0,0,0.0,0.0
1190,1190,-0.33572761708714316,-0.3,1.0,125.0,0.0,5875.0,0,1.0,1.0
1191,1191,-0.7282701505902294,-0.7,0.0,125.0,0.0,5875.0,1,0.0,0.0
1192,1192,0.27448449834015387,0.3,0.0,125.0,1.0,5875.0,0,1.0,0.0
1193,1193,-0.28965618445369545,-0.3,1.0,125.0,1.0,5875.0,1,1.0,0.0
1194,1194,-0.3922796409731113,-0.4,0.0,125.0,1.0,5875.0,0,0.0,1.0
1195,1195,0.5283218433357343,0.5,0.0,125.0,0.0,5875.0,1,1.0,1.0
1196,1196,0.07842303864728972,0.1,0.0,125.0,1.0,5875.0,0,1.0,0.0
1197,1197,-0.504668168799247,-0.5,0.0,125.0,0.0,5875.0,1,0.0,0.0
1198,1198,-0.5923892199418701,-0.6,0.0,125.0,1.0,5875.0,0,0.0,1.0
1199,1199,0.7325720754427657,0.7,1.0,125.0,1.0,5875.0,1,0.0,1.0
1200,1200,0.6450370264810822,0.6,0.0,125.0,0.0,5875.0,1,1.0,1.0
1201,1201,0.489608411769087,0.5,1.0,125.0,1.0,5875.0,1,0.0,1.0
1202,1202,-0.3267865954004061,-0.3,1.0,125.0,0.0,5875.0,0,1.0,1.0
1203,1203,-0.4906756097307096,-0.5,1.0,125.0,0.0,5875.0,0,1.0,1.0
1204,1204,-0.6671357723175184,-0.7,1.0,125.0,1.0,5875.0,1,1.0,0.0
1205,1205,0.44811073593655515,0.4,1.0,125.0,0.0,5875.0,0,0.0,0.0
1206,1206,-0.5913605509554895,-0.6,1.0,125.0,1.0,5875.0,1,1.0,0.0
1207,1207,0.04103390982322863,0.0,1.0,125.0,1.0,5875.0,1,0.0,1.0
1208,1208,0.7741079748112373,0.8,0.0,125.0,1.0,5875.0,0,1.0,0.0
1209,1209,0.8032422350057015,0.8,1.0,125.0,1.0,5875.0,1,0.0,1.0
1210,1210,0.01641150481830811,0.0,0.0,125.0,1.0,5875.0,0,1.0,0.0
1211,1211,-0.6228512753577988,-0.6,0.0,125.0,1.0,5875.0,0,0.0,1.0
1212,1212,-0.5752861525802041,-0.6,0.0,125.0,1.0,5875.0,0,0.0,1.0
1213,1213,-0.031698954572015436,-0.0,1.0,125.0,0.0,5875.0,0,1.0,1.0
1214,1214,0.016461248604241474,0.0,1.0,125.0,1.0,5875.0,1,0.0,1.0
1215,1215,0.7399592438825763,0.7,1.0,125.0,1.0,5875.0,1,0.0,1.0
1216,1216,-0.5750905013742159,-0.6,0.0,125.0,1.0,5875.0,0,0.0,1.0
1217,1217,0.2503230203552419,0.3,0.0,125.0,0.0,5875.0,1,1.0,1.0
1218,1218,0.6002499008465644,0.6,1.0,125.0,1.0,5875.0,1,0.0,1.0
1219,1219,-0.45799288237989455,-0.5,0.0,125.0,1.0,5875.0,0,0.0,1.0
1220,1220,-0.5612321912174432,-0.6,0.0,125.0,1.0,5875.0,0,0.0,1.0
1221,1221,0.7175091079008996,0.7,0.0,125.0,0.0,5875.0,1,1.0,1.0
1222,1222,0.5206200654851528,0.5,0.0,125.0,0.0,5875.0,1,1.0,1.0
1223,1223,0.25638471092384296,0.3,1.0,125.0,1.0,5875.0,1,0.0,1.0
1224,1224,0.70329484157596,0.7,0.0,125.0,0.0,5875.0,1,1.0,1.0
1225,1225,0.844683246854722,0.8,1.0,125.0,1.0,5875.0,1,0.0,1.0
1226,1226,-0.10231678248636211,-0.1,1.0,125.0,0.0,5875.0,0,1.0,1.0
1227,1227,-0.5634796035730298,-0.6,0.0,125.0,0.0,5875.0,1,0.0,0.0
1228,1228,0.07121728764165058,0.1,1.0,125.0,0.0,5875.0,0,0.0,0.0
1229,1229,0.15130085603243437,0.2,0.0,125.0,1.0,5875.0,0,1.0,0.0
1230,1230,0.7410363448823954,0.7,0.0,125.0,1.0,5875.0,0,1.0,0.0
1231,1231,-0.6736726520817871,-0.7,1.0,125.0,1.0,5875.0,1,1.0,0.0
1232,1232,-0.7619530225657252,-0.8,1.0,125.0,1.0,5875.0,1,1.0,0.0
1233,1233,-0.6199961146925445,-0.6,1.0,125.0,1.0,5875.0,1,1.0,0.0
1234,1234,0.7135537724401669,0.7,1.0,125.0,1.0,5875.0,1,0.0,1.0
1235,1235,0.4068636436421572,0.4,1.0,125.0,1.0,5875.0,1,0.0,1.0
1236,1236,0.0841598769460905,0.1,1.0,125.0,0.0,5875.0,0,0.0,0.0
1237,1237,0.8733108323046651,0.9,0.0,125.0,1.0,5875.0,0,1.0,0.0
1238,1238,-0.8910009318326345,-0.9,1.0,125.0,1.0,5875.0,1,1.0,0.0
1239,1239,-0.3939004851780328,-0.4,0.0,125.0,0.0,5875.0,1,0.0,0.0
1240,1240,-0.1525700813673232,-0.2,0.0,125.0,1.0,5875.0,0,0.0,1.0
1241,1241,0.09817450174258091,0.1,1.0,125.0,0.0,5875.0,0,0.0,0.0
1242,1242,0.6476633037964702,0.6,0.0,125.0,1.0,5875.0,0,1.0,0.0
1243,1243,-0.6872403369477743,-0.7,1.0,125.0,1.0,5875.0,1,1.0,0.0
1244,1244,-0.3673700937694033,-0.4,0.0,125.0,0.0,5875.0,1,0.0,0.0
1245,1245,0.4309718954210654,0.4,0.0,125.0,0.0,5875.0,1,1.0,1.0
1246,1246,0.33809839969454847,0.3,0.0,125.0,0.0,5875.0,1,1.0,1.0
1247,1247,0.40903900096297774,0.4,1.0,125.0,0.0,5875.0,0,0.0,0.0
1248,1248,0.5594489672335904,0.6,1.0,125.0,0.0,5875.0,0,0.0,0.0
1249,1249,-0.7722761271072617,-0.8,1.0,125.0,1.0,5875.0,1,1.0,0.0
1250,1250,0.6187816750463445,0.6,1.0,125.0,1.0,5875.0,1,0.0,1.0
1251,1251,-0.29648339956864567,-0.3,1.0,125.0,0.0,5875.0,0,1.0,1.0
1252,1252,0.17877879243599104,0.2,1.0,125.0,0.0,5875.0,0,0.0,0.0
1253,1253,-0.6033747498136066,-0.6,1.0,125.0,0.0,5875.0,0,1.0,1.0
1254,1254,-0.025405251472896295,-0.0,1.0,125.0,1.0,5875.0,1,1.0,0.0
1255,1255,0.7251433690347505,0.7,1.0,125.0,0.0,5875.0,0,0.0,0.0
1256,1256,0.24682164378026916,0.2,1.0,125.0,1.0,5875.0,1,0.0,1.0
1257,1257,0.885972513908248,0.9,0.0,125.0,0.0,5875.0,1,1.0,1.0
1258,1258,0.5434726866448719,0.5,1.0,125.0,0.0,5875.0,0,0.0,0.0
1259,1259,0.20774473998422482,0.2,0.0,125.0,0.0,5875.0,1,1.0,1.0
1260,1260,0.02623119774027416,0.0,1.0,125.0,0.0,5875.0,0,0.0,0.0
1261,1261,-0.06856318507273929,-0.1,1.0,125.0,0.0,5875.0,0,1.0,1.0
1262,1262,-0.22904915278914084,-0.2,0.0,125.0,1.0,5875.0,0,0.0,1.0
1263,1263,-0.5571417743642768,-0.6,0.0,125.0,1.0,5875.0,0,0.0,1.0
1264,1264,0.16158309674007187,0.2,1.0,125.0,1.0,5875.0,1,0.0,1.0
1265,1265,-0.6184123617725591,-0.6,0.0,125.0,1.0,5875.0,0,0.0,1.0
1266,1266,0.20381089085084192,0.2,1.0,125.0,1.0,2805.0,1,0.0,1.0
1267,1267,-0.672130704587879,-0.7,1.0,125.0,0.0,5875.0,0,1.0,1.0
1268,1268,0.6853631515412008,0.7,0.0,125.0,1.0,5875.0,0,1.0,0.0
1269,1269,-0.18760492439279153,-0.2,0.0,125.0,1.0,5875.0,0,0.0,1.0
1270,1270,-0.11194512478765917,-0.1,1.0,125.0,0.0,5875.0,0,1.0,1.0
1271,1271,-0.311198456829175,-0.3,1.0,125.0,1.0,5875.0,1,1.0,0.0
1272,1272,0.16103857473377736,0.2,0.0,125.0,1.0,5875.0,0,1.0,0.0
1273,1273,-0.8944125121679782,-0.9,1.0,125.0,0.0,5875.0,0,1.0,1.0
1274,1274,0.5132574549698296,0.5,0.0,125.0,0.0,5875.0,1,1.0,1.0
1275,1275,0.10143269523806187,0.1,0.0,125.0,0.0,5875.0,1,1.0,1.0
1276,1276,0.736080641184412,0.7,1.0,125.0,1.0,5875.0,1,0.0,1.0
1277,1277,-0.6203364229616429,-0.6,0.0,125.0,1.0,5875.0,0,0.0,1.0
1278,1278,0.30252214632588925,0.3,0.0,125.0,0.0,5875.0,1,1.0,1.0
1279,1279,0.39073611878321934,0.4,1.0,125.0,1.0,5875.0,1,0.0,1.0
1280,1280,0.41118499396385644,0.4,1.0,125.0,1.0,5875.0,1,0.0,1.0
1281,1281,0.7372393484953342,0.7,0.0,125.0,0.0,5875.0,1,1.0,1.0
1282,1282,-0.3383290574235659,-0.3,0.0,125.0,1.0,5875.0,0,0.0,1.0
1283,1283,-0.7736768949678428,-0.8,0.0,125.0,0.0,5875.0,1,0.0,0.0
1284,1284,-0.5725104330245551,-0.6,0.0,125.0,0.0,5875.0,1,0.0,0.0
1285,1285,0.3423436853842333,0.3,0.0,125.0,1.0,5875.0,0,1.0,0.0
1286,1286,-0.40366847906540476,-0.4,0.0,125.0,1.0,5875.0,0,0.0,1.0
1287,1287,-0.17178114536341316,-0.2,1.0,125.0,1.0,5875.0,1,1.0,0.0
1288,1288,-0.2002067417236949,-0.2,0.0,125.0,0.0,5875.0,1,0.0,0.0
1289,1289,-0.4630449762868541,-0.5,0.0,125.0,1.0,5875.0,0,0.0,1.0
1290,1290,-0.0921112812299143,-0.1,0.0,125.0,1.0,5875.0,0,0.0,1.0
1291,1291,-0.3034244975120781,-0.3,0.0,125.0,0.0,5875.0,1,0.0,0.0
1292,1292,-0.7310530627117761,-0.7,1.0,125.0,0.0,5875.0,0,1.0,1.0
1293,1293,0.35686131944650545,0.4,1.0,125.0,0.0,5875.0,0,0.0,0.0
1294,1294,-0.0451602309434177,-0.0,1.0,125.0,0.0,5875.0,0,1.0,1.0
1295,1295,-0.8255460754265942,-0.8,0.0,125.0,1.0,5875.0,0,0.0,1.0
1296,1296,-0.7134191936914291,-0.7,0.0,125.0,1.0,5875.0,0,0.0,1.0
1297,1297,-0.7668909519185225,-0.8,1.0,125.0,1.0,5875.0,1,1.0,0.0
1298,1298,0.14911619799043885,0.1,0.0,125.0,1.0,5875.0,0,1.0,0.0
1299,1299,0.767623861936059,0.8,1.0,125.0,0.0,5875.0,0,0.0,0.0
1300,1300,0.5390954327332299,0.5,1.0,125.0,0.0,5875.0,0,0.0,0.0
1301,1301,-0.7651758087734475,-0.8,1.0,125.0,0.0,5875.0,0,1.0,1.0
1302,1302,-0.2696485269600707,-0.3,0.0,125.0,1.0,5875.0,0,0.0,1.0
1303,1303,-0.6612365180750678,-0.7,1.0,125.0,0.0,5875.0,0,1.0,1.0
1304,1304,0.7272035512257097,0.7,1.0,125.0,1.0,5875.0,1,0.0,1.0
1305,1305,0.33111071927917923,0.3,0.0,125.0,1.0,5875.0,0,1.0,0.0
1306,1306,0.3687175636677157,0.4,0.0,125.0,0.0,5875.0,1,1.0,1.0
1307,1307,-0.3453972048377282,-0.3,0.0,125.0,1.0,5875.0,0,0.0,1.0
1308,1308,0.7827978620827952,0.8,1.0,125.0,1.0,5875.0,1,0.0,1.0
1309,1309,-0.6511994137688726,-0.7,1.0,125.0,1.0,5875.0,1,1.0,0.0
1310,1310,0.3585994875119821,0.4,1.0,125.0,1.0,5875.0,1,0.0,1.0
1311,1311,-0.1600810202665084,-0.2,1.0,125.0,0.0,5875.0,0,1.0,1.0
1312,1312,0.6638943128517535,0.7,0.0,125.0,1.0,5875.0,0,1.0,0.0
1313,1313,-0.11815954787538041,-0.1,0.0,125.0,0.0,5875.0,1,0.0,0.0
1314,1314,-0.5112248459198099,-0.5,0.0,125.0,1.0,5875.0,0,0.0,1.0
1315,1315,-0.30236617456994996,-0.3,0.0,125.0,1.0,5875.0,0,0.0,1.0
1316,1316,-0.36266207476697077,-0.4,1.0,125.0,0.0,5875.0,0,1.0,1.0
1317,1317,0.812082275396372,0.8,0.0,125.0,1.0,5875.0,0,1.0,0.0
1318,1318,0.4913084762493668,0.5,1.0,125.0,0.0,5875.0,0,0.0,0.0
1319,1319,0.6558377870789408,0.7,0.0,125.0,0.0,5875.0,1,1.0,1.0
1320,1320,-0.8096142675874083,-0.8,0.0,125.0,0.0,5875.0,1,0.0,0.0
1321,1321,0.7735134176944861,0.8,1.0,125.0,0.0,5875.0,0,0.0,0.0
1322,1322,0.35849278651309413,0.4,1.0,125.0,1.0,5875.0,1,0.0,1.0
1323,1323,-0.6580322185810015,-0.7,0.0,125.0,0.0,5875.0,1,0.0,0.0
1324,1324,0.44386645847635,0.4,0.0,125.0,1.0,5875.0,0,1.0,0.0
1325,1325,-0.30526546327245163,-0.3,1.0,125.0,1.0,5875.0,1,1.0,0.0
1326,1326,0.018059302148266787,0.0,1.0,125.0,1.0,5875.0,1,0.0,1.0
1327,1327,-0.20763375938935158,-0.2,1.0,125.0,0.0,5875.0,0,1.0,1.0
1328,1328,-0.15032285594766148,-0.2,1.0,125.0,1.0,5875.0,1,1.0,0.0
1329,1329,0.27270557682139673,0.3,0.0,125.0,1.0,5875.0,0,1.0,0.0
1330,1330,0.6966485879283145,0.7,0.0,125.0,1.0,5875.0,0,1.0,0.0
1331,1331,-0.45495587542842925,-0.5,0.0,125.0,1.0,5875.0,0,0.0,1.0
1332,1332,0.14155954669096127,0.1,1.0,125.0,1.0,5875.0,1,0.0,1.0
1333,1333,0.39503924094951925,0.4,0.0,125.0,1.0,5875.0,0,1.0,0.0
1334,1334,-0.1975172613565962,-0.2,0.0,125.0,1.0,5875.0,0,0.0,1.0
1335,1335,-0.08973659338401052,-0.1,0.0,125.0,1.0,5875.0,0,0.0,1.0
1336,1336,0.2049842259186595,0.2,1.0,125.0,1.0,5875.0,1,0.0,1.0
1337,1337,-0.7265111977262482,-0.7,1.0,125.0,1.0,5875.0,1,1.0,0.0
1338,1338,0.221717295812775,0.2,0.0,125.0,0.0,5875.0,1,1.0,1.0
1339,1339,0.20792246202201536,0.2,1.0,125.0,1.0,5875.0,1,0.0,1.0
1340,1340,-0.6356701449654416,-0.6,0.0,125.0,0.0,5875.0,1,0.0,0.0
1341,1341,0.1435129903253357,0.1,0.0,125.0,1.0,5875.0,0,1.0,0.0
1342,1342,0.5549514142412312,0.6,0.0,125.0,1.0,5875.0,0,1.0,0.0
1343,1343,0.6625386695560503,0.7,1.0,125.0,1.0,5875.0,1,0.0,1.0
1344,1344,-0.39075853364347835,-0.4,1.0,125.0,0.0,5875.0,0,1.0,1.0
1345,1345,-0.3928534834767552,-0.4,1.0,125.0,0.0,5875.0,0,1.0,1.0
1346,1346,-0.7830901649074364,-0.8,0.0,125.0,1.0,5875.0,0,0.0,1.0
1347,1347,0.20263833678054455,0.2,1.0,125.0,0.0,5875.0,0,0.0,0.0
1348,1348,-0.7215660881475465,-0.7,0.0,125.0,1.0,5875.0,0,0.0,1.0
1349,1349,-0.011182334314291387,-0.0,0.0,125.0,1.0,5875.0,0,0.0,1.0
1350,1350,0.27212195376724313,0.3,0.0,125.0,1.0,5875.0,0,1.0,0.0
1351,1351,0.8927994134772953,0.9,1.0,125.0,1.0,5875.0,1,0.0,1.0
1352,1352,0.5914027614241023,0.6,1.0,125.0,0.0,5875.0,0,0.0,0.0
1353,1353,-0.36014039172847545,-0.4,0.0,125.0,1.0,5875.0,0,0.0,1.0
1354,1354,-0.4032578595939709,-0.4,1.0,125.0,0.0,5875.0,0,1.0,1.0
1355,1355,0.5595668810333329,0.6,1.0,125.0,1.0,5875.0,1,0.0,1.0
1356,1356,-0.4843229416343084,-0.5,1.0,125.0,0.0,5875.0,0,1.0,1.0
1357,1357,-0.3998179127547026,-0.4,0.0,125.0,1.0,5875.0,0,0.0,1.0
1358,1358,-0.11969899259341743,-0.1,0.0,125.0,1.0,5875.0,0,0.0,1.0
1359,1359,0.5205835388991121,0.5,1.0,125.0,1.0,5875.0,1,0.0,1.0
1360,1360,0.7536564040525952,0.8,0.0,125.0,0.0,5875.0,1,1.0,1.0
1361,1361,-0.11311868820124826,-0.1,1.0,125.0,0.0,5875.0,0,1.0,1.0
1362,1362,0.3234963045512981,0.3,1.0,125.0,0.0,5875.0,0,0.0,0.0
1363,1363,0.5810667263717667,0.6,1.0,125.0,1.0,5875.0,1,0.0,1.0
1364,1364,0.6821186315856812,0.7,0.0,125.0,1.0,5875.0,0,1.0,0.0
1365,1365,-0.33078178180419393,-0.3,1.0,125.0,0.0,5875.0,0,1.0,1.0
1366,1366,-0.5353134675347115,-0.5,0.0,125.0,0.0,5875.0,1,0.0,0.0
1367,1367,-0.28946172968700024,-0.3,1.0,125.0,1.0,5875.0,1,1.0,0.0
1368,1368,0.6529238614620382,0.7,1.0,125.0,1.0,5875.0,1,0.0,1.0
1369,1369,0.23568332786158253,0.2,0.0,125.0,1.0,5875.0,0,1.0,0.0
1370,1370,0.43840070288363686,0.4,1.0,125.0,1.0,5875.0,1,0.0,1.0
1371,1371,-0.1882087432062809,-0.2,1.0,125.0,0.0,5875.0,0,1.0,1.0
1372,1372,0.08689545801416476,0.1,0.0,125.0,0.0,5875.0,1,1.0,1.0
1373,1373,-0.5123629827685446,-0.5,0.0,125.0,1.0,5875.0,0,0.0,1.0
1374,1374,-0.2672175979558059,-0.3,0.0,125.0,1.0,5875.0,0,0.0,1.0
1375,1375,-0.5864243850696709,-0.6,0.0,125.0,1.0,5875.0,0,0.0,1.0
1376,1376,0.0989756022716407,0.1,1.0,125.0,1.0,5875.0,1,0.0,1.0
1377,1377,-0.2819162408909588,-0.3,1.0,125.0,0.0,5875.0,0,1.0,1.0
1378,1378,0.08910647642084135,0.1,0.0,125.0,1.0,5875.0,0,1.0,0.0
1379,1379,0.035545541781366596,0.0,1.0,125.0,1.0,5875.0,1,0.0,1.0
1380,1380,-0.4400849990565603,-0.4,0.0,125.0,1.0,5875.0,0,0.0,1.0
1381,1381,0.47008331426470285,0.5,0.0,125.0,1.0,5875.0,0,1.0,0.0
1382,1382,0.12262190423306485,0.1,0.0,125.0,1.0,5875.0,0,1.0,0.0
1383,1383,0.638293261847941,0.6,0.0,125.0,1.0,5875.0,0,1.0,0.0
1384,1384,0.558041335655533,0.6,1.0,125.0,1.0,5875.0,1,0.0,1.0
1385,1385,0.2164019160821894,0.2,0.0,125.0,0.0,5875.0,1,1.0,1.0
1386,1386,0.7599490724984762,0.8,0.0,125.0,0.0,5875.0,1,1.0,1.0
1387,1387,0.07202178574292217,0.1,1.0,125.0,1.0,5875.0,1,0.0,1.0
1388,1388,0.3099567159051305,0.3,1.0,125.0,1.0,2815.0,1,0.0,1.0
1389,1389,-0.7845897999210154,-0.8,1.0,125.0,0.0,5875.0,0,1.0,1.0
1390,1390,-0.8340875197035902,-0.8,0.0,125.0,0.0,5875.0,1,0.0,0.0
1391,1391,0.457719350788898,0.5,1.0,125.0,1.0,5875.0,1,0.0,1.0
1392,1392,0.5787888649043599,0.6,0.0,125.0,0.0,5875.0,1,1.0,1.0
1393,1393,0.43070354239887154,0.4,1.0,125.0,1.0,5875.0,1,0.0,1.0
1394,1394,-0.3660883458710906,-0.4,1.0,125.0,0.0,5875.0,0,1.0,1.0
1395,1395,0.6926472531122635,0.7,0.0,125.0,0.0,5875.0,1,1.0,1.0
1396,1396,0.7982546379058905,0.8,0.0,125.0,0.0,5875.0,1,1.0,1.0
1397,1397,-0.40411815668426315,-0.4,1.0,125.0,1.0,5875.0,1,1.0,0.0
1398,1398,-0.690835435139609,-0.7,1.0,125.0,0.0,5875.0,0,1.0,1.0
1399,1399,0.8811766963944606,0.9,0.0,125.0,1.0,5875.0,0,1.0,0.0
1400,1400,-0.5667602213076401,-0.6,1.0,125.0,0.0,5875.0,0,1.0,1.0
1401,1401,-0.4819346484829659,-0.5,0.0,125.0,1.0,5875.0,0,0.0,1.0
1402,1402,0.0067895553099265316,0.0,1.0,125.0,1.0,5875.0,1,0.0,1.0
1403,1403,-0.8176196025106817,-0.8,0.0,125.0,0.0,5875.0,1,0.0,0.0
1404,1404,0.8990516672453736,0.9,1.0,125.0,0.0,5875.0,0,0.0,0.0
1405,1405,0.3740058382874071,0.4,1.0,125.0,1.0,3005.0,1,0.0,1.0
1406,1406,0.12583640432887144,0.1,0.0,125.0,1.0,5875.0,0,1.0,0.0
1407,1407,0.6879206346685572,0.7,0.0,125.0,0.0,5875.0,1,1.0,1.0
1408,1408,-0.3227955486746251,-0.3,0.0,125.0,1.0,5875.0,0,0.0,1.0
1409,1409,0.2845644073978876,0.3,0.0,125.0,0.0,5875.0,1,1.0,1.0
1410,1410,0.47875839258573893,0.5,0.0,125.0,1.0,5875.0,0,1.0,0.0
1411,1411,0.37976688878735676,0.4,0.0,125.0,1.0,5875.0,0,1.0,0.0
1412,1412,-0.3778242720634981,-0.4,1.0,125.0,1.0,5875.0,1,1.0,0.0
1413,1413,-0.8832306094714589,-0.9,0.0,125.0,0.0,5875.0,1,0.0,0.0
1414,1414,-0.5976220753247221,-0.6,1.0,125.0,0.0,5875.0,0,1.0,1.0
1415,1415,0.40776944481093447,0.4,1.0,125.0,0.0,5875.0,0,0.0,0.0
1416,1416,-0.42014644328280354,-0.4,1.0,125.0,0.0,5875.0,0,1.0,1.0
1417,1417,0.45903727928451066,0.5,1.0,125.0,1.0,5875.0,1,0.0,1.0
1418,1418,-0.8691542137180512,-0.9,1.0,125.0,1.0,5875.0,1,1.0,0.0
1419,1419,-0.8585617736191237,-0.9,1.0,125.0,0.0,5875.0,0,1.0,1.0
1420,1420,-0.7902565747894218,-0.8,1.0,125.0,0.0,5875.0,0,1.0,1.0
1421,1421,0.8675755459155347,0.9,1.0,125.0,0.0,5875.0,0,0.0,0.0
1422,1422,-0.41469747929285555,-0.4,0.0,125.0,1.0,5875.0,0,0.0,1.0
1423,1423,0.07528630001924963,0.1,0.0,125.0,0.0,5875.0,1,1.0,1.0
1424,1424,0.8652518385236904,0.9,0.0,125.0,1.0,5875.0,0,1.0,0.0
1425,1425,-0.4107218909020676,-0.4,1.0,125.0,0.0,5875.0,0,1.0,1.0
1426,1426,0.34500264854670404,0.3,0.0,125.0,0.0,5875.0,1,1.0,1.0
1427,1427,-0.16235752049220242,-0.2,0.0,125.0,0.0,5875.0,1,0.0,0.0
1428,1428,0.45267514829298927,0.5,1.0,125.0,1.0,5875.0,1,0.0,1.0
1429,1429,0.769058432062023,0.8,1.0,125.0,1.0,5875.0,1,0.0,1.0
1430,1430,0.8002991035588659,0.8,0.0,125.0,0.0,5875.0,1,1.0,1.0
1431,1431,-0.45586001840346857,-0.5,1.0,125.0,1.0,5875.0,1,1.0,0.0
1432,1432,0.5698308601593526,0.6,1.0,125.0,0.0,5875.0,0,0.0,0.0
1433,1433,0.8318960979710778,0.8,0.0,125.0,1.0,5875.0,0,1.0,0.0
1434,1434,-0.48343951925542733,-0.5,0.0,125.0,1.0,5875.0,0,0.0,1.0
1435,1435,-0.05539278196314101,-0.1,0.0,125.0,1.0,5875.0,0,0.0,1.0
1436,1436,0.4641768377926708,0.5,0.0,125.0,0.0,5875.0,1,1.0,1.0
1437,1437,-0.5964933319132795,-0.6,1.0,125.0,0.0,5875.0,0,1.0,1.0
1438,1438,-0.027191594322559687,-0.0,0.0,125.0,1.0,5875.0,0,0.0,1.0
1439,1439,-0.18830107934397078,-0.2,1.0,125.0,0.0,5875.0,0,1.0,1.0
1440,1440,-0.16164164087460442,-0.2,0.0,125.0,0.0,5875.0,1,0.0,0.0
1441,1441,-0.7593008007638511,-0.8,1.0,125.0,0.0,5875.0,0,1.0,1.0
1442,1442,0.3801269311070844,0.4,1.0,125.0,0.0,5875.0,0,0.0,0.0
1443,1443,0.7079152461544823,0.7,0.0,125.0,1.0,5875.0,0,1.0,0.0
1444,1444,0.5528505219055792,0.6,0.0,125.0,0.0,5875.0,1,1.0,1.0
1445,1445,0.228248686976254,0.2,0.0,125.0,0.0,5875.0,1,1.0,1.0
1446,1446,-0.7724130196366952,-0.8,1.0,125.0,1.0,5875.0,1,1.0,0.0
1447,1447,0.18938341435248096,0.2,1.0,125.0,0.0,5875.0,0,0.0,0.0
1448,1448,-0.3992068536341088,-0.4,1.0,125.0,1.0,5875.0,1,1.0,0.0
1449,1449,0.073203816276741,0.1,1.0,125.0,1.0,5875.0,1,0.0,1.0
1450,1450,-0.3789358181153891,-0.4,0.0,125.0,1.0,5875.0,0,0.0,1.0
1451,1451,-0.014584724959875728,-0.0,0.0,125.0,1.0,5875.0,0,0.0,1.0
1452,1452,-0.8873090221940572,-0.9,1.0,125.0,0.0,5875.0,0,1.0,1.0
1453,1453,0.7071656719671587,0.7,0.0,125.0,1.0,5875.0,0,1.0,0.0
1454,1454,0.09100372003612933,0.1,0.0,125.0,1.0,5875.0,0,1.0,0.0
1455,1455,0.34611564376712034,0.3,0.0,125.0,0.0,5875.0,1,1.0,1.0
1456,1456,-0.0023441299063966525,-0.0,1.0,125.0,1.0,5875.0,1,1.0,0.0
1457,1457,-0.24800138100418923,-0.2,1.0,125.0,0.0,5875.0,0,1.0,1.0
1458,1458,0.8045791448071927,0.8,0.0,125.0,1.0,5875.0,0,1.0,0.0
1459,1459,-0.5776968417736612,-0.6,0.0,125.0,0.0,5875.0,1,0.0,0.0
1460,1460,-0.06564064035109951,-0.1,1.0,125.0,0.0,5875.0,0,1.0,1.0
1461,1461,0.055898934249622,0.1,0.0,125.0,0.0,5875.0,1,1.0,1.0
1462,1462,0.8205651332761398,0.8,1.0,125.0,0.0,5875.0,0,0.0,0.0
1463,1463,-0.5198939944187868,-0.5,1.0,125.0,1.0,5875.0,1,1.0,0.0
1464,1464,-0.19838867683549577,-0.2,0.0,125.0,0.0,5875.0,1,0.0,0.0
1465,1465,-0.4814976705615896,-0.5,0.0,125.0,1.0,5875.0,0,0.0,1.0
1466,1466,0.7328985408670948,0.7,1.0,125.0,1.0,2725.0,1,0.0,1.0
1467,1467,0.6229431023897144,0.6,1.0,125.0,0.0,5875.0,0,0.0,0.0
1468,1468,-0.732863264375279,-0.7,0.0,125.0,0.0,5875.0,1,0.0,0.0
1469,1469,0.7131703086017801,0.7,1.0,125.0,1.0,5875.0,1,0.0,1.0
1470,1470,0.5634731324378696,0.6,1.0,125.0,0.0,5875.0,0,0.0,0.0
1471,1471,-0.33333399898799876,-0.3,0.0,125.0,1.0,5875.0,0,0.0,1.0
1472,1472,-0.17986111552598105,-0.2,0.0,125.0,1.0,5875.0,0,0.0,1.0
1473,1473,0.7929504346561821,0.8,0.0,125.0,1.0,5875.0,0,1.0,0.0
1474,1474,0.6141867942173255,0.6,1.0,125.0,0.0,5875.0,0,0.0,0.0
1475,1475,0.04154571157392162,0.0,1.0,125.0,0.0,5875.0,0,0.0,0.0
1476,1476,-0.1296700451225241,-0.1,1.0,125.0,1.0,5875.0,1,1.0,0.0
1477,1477,-0.4256091667113866,-0.4,1.0,125.0,0.0,5875.0,0,1.0,1.0
1478,1478,0.7754626185674697,0.8,1.0,125.0,0.0,5875.0,0,0.0,0.0
1479,1479,-0.775833231832173,-0.8,0.0,125.0,0.0,5875.0,1,0.0,0.0
1480,1480,0.3817807948367261,0.4,0.0,125.0,0.0,5875.0,1,1.0,1.0
1481,1481,-0.5388247186519104,-0.5,1.0,125.0,1.0,5875.0,1,1.0,0.0
1482,1482,-0.4842775286227469,-0.5,1.0,125.0,1.0,5875.0,1,1.0,0.0
1483,1483,0.5109153107601175,0.5,1.0,125.0,1.0,5875.0,1,0.0,1.0
1484,1484,0.26393991750456836,0.3,1.0,125.0,0.0,5875.0,0,0.0,0.0
1485,1485,-0.3455179344268573,-0.3,0.0,125.0,0.0,5875.0,1,0.0,0.0
1486,1486,-0.16267954501601167,-0.2,1.0,125.0,0.0,5875.0,0,1.0,1.0
1487,1487,0.2838769648458347,0.3,1.0,125.0,1.0,5875.0,1,0.0,1.0
1488,1488,-0.14520530566573975,-0.1,0.0,125.0,1.0,5875.0,0,0.0,1.0
1489,1489,-0.7519284391194232,-0.8,0.0,125.0,1.0,5875.0,0,0.0,1.0
1490,1490,-0.021579612672072535,-0.0,0.0,125.0,0.0,5875.0,1,0.0,0.0
1491,1491,-0.4367485425119017,-0.4,1.0,125.0,0.0,5875.0,0,1.0,1.0
1492,1492,0.8925597583367605,0.9,0.0,125.0,0.0,5875.0,1,1.0,1.0
1493,1493,-0.7299028373190602,-0.7,0.0,125.0,0.0,5875.0,1,0.0,0.0
1494,1494,0.20157676714635941,0.2,0.0,125.0,1.0,5875.0,0,1.0,0.0
1495,1495,0.80311995512452,0.8,1.0,125.0,1.0,5875.0,1,0.0,1.0
1496,1496,-0.4803934591974034,-0.5,0.0,125.0,0.0,2945.0,1,0.0,0.0
1497,1497,-0.47496123019399694,-0.5,1.0,125.0,1.0,5875.0,1,1.0,0.0
1498,1498,0.19273300616201217,0.2,0.0,125.0,0.0,5875.0,1,1.0,1.0
1499,1499,0.8424339625838032,0.8,1.0,125.0,0.0,5875.0,0,0.0,0.0
1500,1500,-0.22149075994382605,-0.2,0.0,125.0,1.0,5875.0,0,0.0,1.0
1501,1501,0.4549413636957401,0.5,1.0,125.0,1.0,5875.0,1,0.0,1.0
1502,1502,0.5457206488727674,0.5,0.0,125.0,1.0,5875.0,0,1.0,0.0
1503,1503,-0.5406122971693401,-0.5,1.0,125.0,0.0,5875.0,0,1.0,1.0
1504,1504,0.2055549600245289,0.2,0.0,125.0,0.0,5875.0,1,1.0,1.0
1505,1505,0.20315403829096124,0.2,0.0,125.0,0.0,5875.0,1,1.0,1.0
1506,1506,0.413372619912843,0.4,1.0,125.0,1.0,5875.0,1,0.0,1.0
1507,1507,0.7145214802505458,0.7,0.0,125.0,0.0,5875.0,1,1.0,1.0
1508,1508,-0.7321368106058255,-0.7,0.0,125.0,0.0,5875.0,1,0.0,0.0
1509,1509,-0.48713604638067837,-0.5,0.0,125.0,0.0,5875.0,1,0.0,0.0
1510,1510,0.35452611213960716,0.4,0.0,125.0,0.0,5875.0,1,1.0,1.0
1511,1511,-0.712963847682682,-0.7,1.0,125.0,1.0,5875.0,1,1.0,0.0
1512,1512,0.6343020984215989,0.6,1.0,125.0,0.0,5875.0,0,0.0,0.0
1513,1513,-0.3592492465181333,-0.4,1.0,125.0,0.0,5875.0,0,1.0,1.0
1514,1514,-0.8413618404746687,-0.8,0.0,125.0,1.0,5875.0,0,0.0,1.0
1515,1515,-0.7232176732398472,-0.7,1.0,125.0,0.0,5875.0,0,1.0,1.0
1516,1516,0.6603665084656941,0.7,1.0,125.0,1.0,5875.0,1,0.0,1.0
1517,1517,0.7001737557139721,0.7,0.0,125.0,1.0,5875.0,0,1.0,0.0
1518,1518,0.027764188886611363,0.0,1.0,125.0,1.0,5875.0,1,0.0,1.0
1519,1519,0.45887394060626685,0.5,1.0,125.0,0.0,5875.0,0,0.0,0.0
1520,1520,-0.13771314964307724,-0.1,0.0,125.0,1.0,5875.0,0,0.0,1.0
1521,1521,0.30271355807340206,0.3,0.0,125.0,1.0,5875.0,0,1.0,0.0
1522,1522,-0.218866219726226,-0.2,1.0,125.0,1.0,5875.0,1,1.0,0.0
1523,1523,0.10722320660180362,0.1,1.0,125.0,1.0,5875.0,1,0.0,1.0
1524,1524,0.6462769275628429,0.6,1.0,125.0,1.0,5875.0,1,0.0,1.0
1525,1525,-0.6062929472330494,-0.6,1.0,125.0,0.0,5875.0,0,1.0,1.0
1526,1526,0.4340192448485526,0.4,1.0,125.0,1.0,2805.0,1,0.0,1.0
1527,1527,-0.8474377144138421,-0.8,0.0,125.0,1.0,5875.0,0,0.0,1.0
1528,1528,0.028985627711929474,0.0,0.0,125.0,1.0,5875.0,0,1.0,0.0
1529,1529,0.18109879197531809,0.2,1.0,125.0,1.0,5875.0,1,0.0,1.0
1530,1530,0.7046343541836974,0.7,0.0,125.0,0.0,5875.0,1,1.0,1.0
1531,1531,0.16068192012973592,0.2,1.0,125.0,1.0,5875.0,1,0.0,1.0
1532,1532,0.09953042842037718,0.1,0.0,125.0,1.0,5875.0,0,1.0,0.0
1533,1533,0.8482720080497644,0.8,0.0,125.0,0.0,5875.0,1,1.0,1.0
1534,1534,0.8563528946601743,0.9,0.0,125.0,0.0,5875.0,1,1.0,1.0
1535,1535,-0.20142922100844118,-0.2,0.0,125.0,1.0,5875.0,0,0.0,1.0
1536,1536,-0.4645880568102358,-0.5,1.0,125.0,1.0,5875.0,1,1.0,0.0
1537,1537,-0.19035743784203607,-0.2,0.0,125.0,1.0,5875.0,0,0.0,1.0
1538,1538,0.8624208033873736,0.9,1.0,125.0,0.0,5875.0,0,0.0,0.0
1539,1539,0.21302917449914804,0.2,1.0,125.0,0.0,5875.0,0,0.0,0.0
1540,1540,0.649954082013353,0.6,1.0,125.0,1.0,5875.0,1,0.0,1.0
1541,1541,0.1147931191364785,0.1,0.0,125.0,1.0,5875.0,0,1.0,0.0
1542,1542,-0.32841029582233583,-0.3,1.0,125.0,0.0,5875.0,0,1.0,1.0
1543,1543,-0.0170872320231491,-0.0,1.0,125.0,0.0,5875.0,0,1.0,1.0
1544,1544,0.17468655666511024,0.2,0.0,125.0,1.0,5875.0,0,1.0,0.0
1545,1545,-0.11988839770392923,-0.1,1.0,125.0,0.0,5875.0,0,1.0,1.0
1546,1546,-0.5230021410243537,-0.5,1.0,125.0,1.0,5875.0,1,1.0,0.0
1547,1547,-0.4395523274157454,-0.4,1.0,125.0,1.0,5875.0,1,1.0,0.0
1548,1548,0.36225837432752306,0.4,0.0,125.0,1.0,5875.0,0,1.0,0.0
1549,1549,-0.32048273168963715,-0.3,0.0,125.0,1.0,5875.0,0,0.0,1.0
1550,1550,0.4725658189939995,0.5,1.0,125.0,1.0,5875.0,1,0.0,1.0
1551,1551,-0.5294985041418975,-0.5,0.0,125.0,1.0,5875.0,0,0.0,1.0
1552,1552,-0.4777223823355542,-0.5,0.0,125.0,1.0,5875.0,0,0.0,1.0
1553,1553,0.8663678902439259,0.9,1.0,125.0,1.0,2825.0,1,0.0,1.0
1554,1554,0.7241548523709861,0.7,0.0,125.0,1.0,5875.0,0,1.0,0.0
1555,1555,0.3957896284707928,0.4,1.0,125.0,1.0,5875.0,1,0.0,1.0
1556,1556,-0.36122650113837373,-0.4,1.0,125.0,1.0,5875.0,1,1.0,0.0
1557,1557,-0.6565965554982087,-0.7,1.0,125.0,0.0,5875.0,0,1.0,1.0
1558,1558,0.7435001616083315,0.7,0.0,125.0,1.0,5875.0,0,1.0,0.0
1559,1559,0.5911128913143778,0.6,0.0,125.0,0.0,5875.0,1,1.0,1.0
1560,1560,0.8433366727078994,0.8,0.0,125.0,1.0,5875.0,0,1.0,0.0
1561,1561,-0.8371834963104439,-0.8,1.0,125.0,0.0,5875.0,0,1.0,1.0
1562,1562,-0.7718028856265606,-0.8,1.0,125.0,1.0,5875.0,1,1.0,0.0
