,trial,coherence,coherence_bin,correct_side,target_onset,checker_onset,decision,decision_time,correct_decision
0,0,-0.70022209440486,-0.7,1,443.0,994.0,1.0,223.0,1
1,1,-0.6970384871926343,-0.7,1,360.0,730.0,1.0,210.0,1
2,2,-0.20589654417060843,-0.2,1,404.0,521.0,1.0,445.0,1
3,3,-0.8213888520169164,-0.8,1,302.0,712.0,1.0,436.0,1
4,4,-0.4038748307698501,-0.4,1,395.0,800.0,1.0,795.0,1
5,5,-0.6503164950547782,-0.7,1,413.0,669.0,1.0,1678.0,1
6,6,0.00021879673135405397,0.0,0,446.0,928.0,1.0,906.0,0
7,7,-0.359846669467188,-0.4,1,378.0,687.0,1.0,255.0,1
8,8,-0.646374523717665,-0.6,1,346.0,705.0,1.0,539.0,1
9,9,-0.9748326296652843,-1.0,1,371.0,825.0,1.0,624.0,1
10,10,-0.06945794767805369,-0.1,1,468.0,990.0,1.0,992.0,1
11,11,-0.1620437019868719,-0.2,1,333.0,854.0,1.0,633.0,1
12,12,0.23839522400372393,0.2,0,371.0,893.0,1.0,326.0,0
13,13,-0.971107929954315,-1.0,1,417.0,537.0,1.0,736.0,1
14,14,0.8461558900734596,0.8,0,433.0,787.0,0.0,300.0,1
15,15,0.8002923541689404,0.8,0,352.0,813.0,0.0,595.0,1
16,16,-0.9299588549700926,-0.9,1,417.0,791.0,1.0,112.0,1
17,17,-0.0024226181518445244,-0.0,1,264.0,560.0,0.0,826.0,0
18,18,-0.36788541618366244,-0.4,1,302.0,565.0,1.0,153.0,1
19,19,0.6644928497974054,0.7,0,492.0,542.0,0.0,856.0,1
20,20,0.054876719528650364,0.1,0,495.0,822.0,1.0,483.0,0
21,21,0.8873068842406218,0.9,0,435.0,655.0,0.0,170.0,1
22,22,-0.5346928784958997,-0.5,1,297.0,931.0,1.0,192.0,1
23,23,0.004346912886746379,0.0,0,455.0,694.0,1.0,551.0,0
24,24,-0.039347966296884085,-0.0,1,353.0,633.0,1.0,254.0,1
25,25,0.8129087093500196,0.8,0,373.0,901.0,0.0,806.0,1
26,26,-0.952202086709004,-1.0,1,343.0,537.0,1.0,160.0,1
27,27,-0.9376303176758614,-0.9,1,276.0,692.0,1.0,292.0,1
28,28,-0.6892878130689262,-0.7,1,424.0,611.0,1.0,165.0,1
29,29,0.10613040518732109,0.1,0,299.0,546.0,1.0,305.0,0
30,30,0.004180319460064252,0.0,0,364.0,927.0,1.0,1049.0,0
31,31,0.6095578684581924,0.6,0,482.0,607.0,0.0,331.0,1
32,32,0.17485012332568584,0.2,0,434.0,927.0,1.0,319.0,0
33,33,0.4074605116776093,0.4,0,482.0,764.0,0.0,394.0,1
34,34,0.8966244745523944,0.9,0,494.0,586.0,0.0,400.0,1
35,35,0.8928002528817398,0.9,0,496.0,563.0,0.0,791.0,1
36,36,-0.24216645137872628,-0.2,1,436.0,937.0,1.0,247.0,1
37,37,0.9252772880134412,0.9,0,466.0,556.0,0.0,348.0,1
38,38,-0.5905631799222002,-0.6,1,355.0,586.0,1.0,299.0,1
39,39,0.297254245581398,0.3,0,459.0,767.0,0.0,1054.0,1
40,40,0.2115219162489319,0.2,0,354.0,596.0,0.0,1060.0,1
41,41,0.4525088193798692,0.5,0,351.0,602.0,0.0,1597.0,1
42,42,-0.11835766112019441,-0.1,1,415.0,943.0,1.0,782.0,1
43,43,-0.8436542359950034,-0.8,1,467.0,677.0,1.0,106.0,1
44,44,0.8796201638405026,0.9,0,384.0,947.0,1.0,229.0,0
45,45,-0.2240207558406866,-0.2,1,363.0,640.0,1.0,977.0,1
46,46,-0.1046918300940205,-0.1,1,439.0,636.0,1.0,1025.0,1
47,47,0.6874713998239568,0.7,0,368.0,904.0,0.0,338.0,1
48,48,0.3325500340966887,0.3,0,394.0,780.0,1.0,176.0,0
49,49,0.40687788068931496,0.4,0,276.0,822.0,0.0,222.0,1
50,50,-0.9290838841400229,-0.9,1,432.0,661.0,1.0,477.0,1
51,51,-0.7165412475258766,-0.7,1,499.0,727.0,1.0,194.0,1
52,52,-0.01957116759733979,-0.0,1,479.0,863.0,1.0,948.0,1
53,53,-0.9809493674177834,-1.0,1,359.0,793.0,1.0,278.0,1
54,54,-0.8260474131932687,-0.8,1,392.0,600.0,1.0,1118.0,1
55,55,0.9997486229448227,1.0,0,324.0,960.0,0.0,136.0,1
56,56,0.7306190577106462,0.7,0,395.0,671.0,0.0,274.0,1
57,57,0.0811023546662577,0.1,0,311.0,708.0,0.0,1051.0,1
58,58,-0.24948008121755572,-0.2,1,434.0,967.0,1.0,589.0,1
59,59,0.3878212024898069,0.4,0,271.0,941.0,0.0,428.0,1
60,60,0.2564568999672221,0.3,0,272.0,500.0,0.0,158.0,1
61,61,0.7471203765565804,0.7,0,395.0,968.0,0.0,1137.0,1
62,62,0.8018340667762065,0.8,0,372.0,963.0,0.0,305.0,1
63,63,0.6965134159150188,0.7,0,475.0,557.0,0.0,248.0,1
64,64,-0.002241929480271132,-0.0,1,499.0,949.0,1.0,712.0,1
65,65,-0.32205442515437066,-0.3,1,311.0,507.0,1.0,812.0,1
66,66,-0.09187632053615902,-0.1,1,455.0,813.0,1.0,472.0,1
67,67,0.6471981298493619,0.6,0,426.0,853.0,0.0,361.0,1
68,68,-0.8603280476944095,-0.9,1,464.0,706.0,1.0,300.0,1
69,69,0.2000835143552182,0.2,0,452.0,671.0,1.0,347.0,0
70,70,-0.5648662751022118,-0.6,1,404.0,927.0,1.0,499.0,1
71,71,-0.648421633285954,-0.6,1,288.0,669.0,1.0,533.0,1
72,72,0.7036255942139493,0.7,0,298.0,937.0,0.0,525.0,1
73,73,-0.4625797657659676,-0.5,1,338.0,939.0,1.0,1013.0,1
74,74,-0.4554477773714525,-0.5,1,354.0,899.0,1.0,1837.0,1
75,75,-0.9368343339813221,-0.9,1,407.0,790.0,1.0,413.0,1
76,76,-0.9672617774555294,-1.0,1,378.0,529.0,1.0,573.0,1
77,77,0.9770160972529605,1.0,0,283.0,891.0,0.0,516.0,1
78,78,0.806542051704672,0.8,0,497.0,814.0,0.0,259.0,1
79,79,0.033258908612507465,0.0,0,441.0,528.0,1.0,351.0,0
80,80,0.9250853622671324,0.9,0,371.0,515.0,0.0,724.0,1
81,81,-0.6325630715620278,-0.6,1,327.0,758.0,1.0,315.0,1
82,82,0.7570844070355185,0.8,0,431.0,904.0,0.0,135.0,1
83,83,-0.8517233736927305,-0.9,1,435.0,991.0,1.0,664.0,1
84,84,-0.007806805537232231,-0.0,1,495.0,872.0,1.0,1393.0,1
85,85,0.5157797842167304,0.5,0,451.0,502.0,0.0,277.0,1
86,86,0.10348070839229795,0.1,0,277.0,968.0,1.0,2535.0,0
87,87,0.4846091265632224,0.5,0,318.0,541.0,0.0,291.0,1
88,88,0.735022629468495,0.7,0,434.0,792.0,0.0,794.0,1
89,89,0.6873908986560464,0.7,0,250.0,959.0,1.0,161.0,0
90,90,0.8212462703315331,0.8,0,290.0,504.0,0.0,206.0,1
91,91,0.7091915419831023,0.7,0,450.0,876.0,0.0,404.0,1
92,92,0.2858012257019735,0.3,0,378.0,516.0,0.0,346.0,1
93,93,-0.6639550929161613,-0.7,1,416.0,652.0,1.0,652.0,1
94,94,-0.3534272716078528,-0.4,1,457.0,622.0,1.0,681.0,1
95,95,0.655871301915711,0.7,0,474.0,518.0,0.0,948.0,1
96,96,-0.7322273014361369,-0.7,1,334.0,992.0,1.0,164.0,1
97,97,-0.564883970068969,-0.6,1,411.0,783.0,1.0,326.0,1
98,98,-0.8284965662171417,-0.8,1,473.0,519.0,1.0,78.0,1
99,99,-0.702182218687947,-0.7,1,475.0,893.0,1.0,152.0,1
100,100,-0.06127301063621604,-0.1,1,337.0,844.0,1.0,449.0,1
101,101,0.8532238196160973,0.9,0,448.0,598.0,0.0,244.0,1
102,102,0.34271211143020075,0.3,0,360.0,783.0,0.0,377.0,1
103,103,0.7655825451056406,0.8,0,393.0,775.0,0.0,452.0,1
104,104,0.7810342009920404,0.8,0,275.0,672.0,0.0,163.0,1
105,105,0.8737912821738232,0.9,0,356.0,910.0,0.0,704.0,1
106,106,-0.8955598703440995,-0.9,1,254.0,722.0,1.0,164.0,1
107,107,0.09104974160023338,0.1,0,407.0,915.0,0.0,2528.0,1
108,108,-0.7379006171711648,-0.7,1,391.0,965.0,1.0,134.0,1
109,109,-0.9096207890519141,-0.9,1,362.0,564.0,1.0,554.0,1
110,110,-0.8830398593319084,-0.9,1,282.0,752.0,1.0,196.0,1
111,111,0.747059886730119,0.7,0,412.0,779.0,0.0,559.0,1
112,112,-0.027362532229430636,-0.0,1,400.0,525.0,1.0,945.0,1
113,113,-0.9377728921706276,-0.9,1,326.0,613.0,1.0,121.0,1
114,114,-0.13082551846099988,-0.1,1,494.0,508.0,1.0,358.0,1
115,115,-0.7019583755747754,-0.7,1,335.0,632.0,1.0,323.0,1
116,116,-0.8230746798736057,-0.8,1,265.0,753.0,1.0,502.0,1
117,117,-0.23704489260165773,-0.2,1,475.0,695.0,0.0,760.0,0
118,118,-0.021697190625384666,-0.0,1,470.0,528.0,1.0,1302.0,1
119,119,-0.6869479145495949,-0.7,1,464.0,953.0,1.0,233.0,1
120,120,-0.9083937085517817,-0.9,1,405.0,606.0,1.0,219.0,1
121,121,-0.016088938320424573,-0.0,1,431.0,904.0,0.0,165.0,0
122,122,0.14988237737267474,0.1,0,460.0,735.0,0.0,555.0,1
123,123,-0.6913131700049757,-0.7,1,384.0,639.0,1.0,477.0,1
124,124,0.23814937937263791,0.2,0,499.0,707.0,1.0,174.0,0
125,125,0.5419459709078476,0.5,0,463.0,717.0,0.0,510.0,1
126,126,0.8066532532970365,0.8,0,378.0,862.0,0.0,150.0,1
127,127,-0.2092854352843294,-0.2,1,360.0,640.0,0.0,1850.0,0
128,128,-0.3321817815690442,-0.3,1,300.0,570.0,1.0,690.0,1
129,129,0.046690862154899815,0.0,0,283.0,765.0,0.0,2092.0,1
130,130,-0.7820859461280756,-0.8,1,331.0,817.0,1.0,192.0,1
131,131,0.727362609801322,0.7,0,367.0,681.0,0.0,202.0,1
132,132,0.5327676591135786,0.5,0,360.0,592.0,0.0,388.0,1
133,133,-0.1816878173971539,-0.2,1,306.0,690.0,1.0,394.0,1
134,134,-0.44065028363135794,-0.4,1,358.0,899.0,1.0,173.0,1
135,135,-0.878246978391352,-0.9,1,425.0,559.0,1.0,216.0,1
136,136,-0.4581940350900955,-0.5,1,388.0,787.0,1.0,625.0,1
137,137,0.05001475279247525,0.1,0,251.0,834.0,0.0,1055.0,1
138,138,-0.12673772134775607,-0.1,1,309.0,852.0,1.0,229.0,1
139,139,0.5567260069306168,0.6,0,348.0,629.0,0.0,693.0,1
140,140,-0.877699753844452,-0.9,1,437.0,855.0,1.0,128.0,1
141,141,0.0373825784844779,0.0,0,492.0,885.0,0.0,1763.0,1
142,142,0.25663625543113344,0.3,0,384.0,688.0,0.0,998.0,1
143,143,-0.568884131336562,-0.6,1,273.0,870.0,0.0,417.0,0
144,144,-0.8680785212502513,-0.9,1,341.0,588.0,1.0,401.0,1
145,145,0.6620078841786317,0.7,0,322.0,855.0,0.0,323.0,1
146,146,0.3383776693044833,0.3,0,279.0,812.0,0.0,499.0,1
147,147,-0.27758275464068705,-0.3,1,471.0,668.0,1.0,411.0,1
148,148,-0.4871828162553,-0.5,1,389.0,593.0,1.0,188.0,1
149,149,0.9851067231439616,1.0,0,405.0,520.0,0.0,445.0,1
150,150,-0.49596902859201975,-0.5,1,363.0,838.0,1.0,139.0,1
151,151,-0.7418948755280244,-0.7,1,355.0,735.0,1.0,1050.0,1
152,152,-0.109654371594055,-0.1,1,268.0,516.0,1.0,246.0,1
153,153,0.9412661204642105,0.9,0,435.0,653.0,0.0,612.0,1
154,154,-0.3411959877393125,-0.3,1,398.0,775.0,1.0,347.0,1
155,155,0.9775340700385673,1.0,0,450.0,511.0,0.0,299.0,1
156,156,0.5380877193281421,0.5,0,385.0,883.0,1.0,502.0,0
157,157,-0.635389198478155,-0.6,1,329.0,905.0,1.0,1136.0,1
158,158,0.47876146777728046,0.5,0,490.0,536.0,0.0,574.0,1
159,159,-0.6196952581808619,-0.6,1,401.0,994.0,1.0,255.0,1
160,160,0.5320043502356337,0.5,0,445.0,554.0,0.0,521.0,1
161,161,0.38945801338363717,0.4,0,412.0,845.0,0.0,213.0,1
162,162,-0.21502789268032996,-0.2,1,287.0,883.0,1.0,240.0,1
163,163,-0.8030674691883468,-0.8,1,291.0,634.0,1.0,195.0,1
164,164,-0.5676266673568262,-0.6,1,344.0,566.0,1.0,350.0,1
165,165,-0.0661215306310281,-0.1,1,278.0,930.0,1.0,172.0,1
166,166,0.19361763504858942,0.2,0,466.0,744.0,1.0,320.0,0
167,167,0.05566393281560034,0.1,0,257.0,733.0,0.0,660.0,1
168,168,0.04116819171998931,0.0,0,492.0,586.0,1.0,182.0,0
169,169,0.45315433824249984,0.5,0,401.0,743.0,0.0,736.0,1
170,170,-0.5535875827734982,-0.6,1,299.0,771.0,1.0,670.0,1
171,171,-0.05472554211422742,-0.1,1,398.0,902.0,1.0,740.0,1
172,172,-0.03837827310394415,-0.0,1,253.0,938.0,1.0,229.0,1
173,173,-0.07923765024946317,-0.1,1,494.0,939.0,1.0,2177.0,1
174,174,-0.9516913127406896,-1.0,1,304.0,578.0,1.0,278.0,1
175,175,0.5753073842497323,0.6,0,254.0,764.0,0.0,772.0,1
176,176,0.32849409786481676,0.3,0,432.0,592.0,0.0,2806.0,1
177,177,-0.1339027943313389,-0.1,1,425.0,821.0,1.0,304.0,1
178,178,-0.08918371819029258,-0.1,1,280.0,684.0,1.0,266.0,1
179,179,0.8370799463645597,0.8,0,349.0,835.0,0.0,806.0,1
180,180,0.8757242995677226,0.9,0,434.0,725.0,0.0,411.0,1
181,181,-0.10672952187565166,-0.1,1,427.0,762.0,1.0,381.0,1
182,182,0.047622332104409804,0.0,0,293.0,762.0,0.0,115.0,1
183,183,-0.5541610660167979,-0.6,1,392.0,601.0,1.0,267.0,1
184,184,-0.7814994075981552,-0.8,1,417.0,550.0,1.0,193.0,1
185,185,-0.9166783022059672,-0.9,1,440.0,564.0,1.0,586.0,1
186,186,-0.5170023095558676,-0.5,1,476.0,526.0,1.0,558.0,1
187,187,-0.6960386000295169,-0.7,1,440.0,689.0,1.0,141.0,1
188,188,-0.25453461054973125,-0.3,1,400.0,946.0,1.0,354.0,1
189,189,-0.8856381619448912,-0.9,1,452.0,620.0,1.0,138.0,1
190,190,-0.27904841535778324,-0.3,1,407.0,803.0,1.0,620.0,1
191,191,-0.1034693701405156,-0.1,1,324.0,518.0,1.0,368.0,1
192,192,0.09534985761416159,0.1,0,392.0,719.0,1.0,1859.0,0
193,193,-0.4282930636167288,-0.4,1,371.0,663.0,1.0,246.0,1
194,194,0.8386910104146359,0.8,0,390.0,714.0,0.0,296.0,1
195,195,-0.8277310048762156,-0.8,1,402.0,699.0,1.0,279.0,1
196,196,-0.9427168562319506,-0.9,1,366.0,843.0,1.0,411.0,1
197,197,-0.2527441439838489,-0.3,1,320.0,611.0,1.0,389.0,1
198,198,-0.20521797729832003,-0.2,1,478.0,826.0,0.0,916.0,0
199,199,0.12174146325871438,0.1,0,253.0,732.0,0.0,1065.0,1
200,200,-0.9156824717064012,-0.9,1,419.0,943.0,1.0,178.0,1
201,201,-0.3525352224690226,-0.4,1,390.0,644.0,1.0,206.0,1
202,202,0.4131456794136885,0.4,0,454.0,671.0,0.0,525.0,1
203,203,0.19512055744026724,0.2,0,336.0,902.0,1.0,342.0,0
204,204,-0.34589095239941225,-0.3,1,496.0,832.0,0.0,1692.0,0
205,205,0.18410153865579515,0.2,0,358.0,734.0,0.0,2958.0,1
206,206,-0.769761389329684,-0.8,1,378.0,852.0,1.0,320.0,1
207,207,0.21966676143871866,0.2,0,439.0,612.0,1.0,429.0,0
208,208,0.30679751989863924,0.3,0,472.0,815.0,1.0,343.0,0
209,209,0.72563974588934,0.7,0,450.0,705.0,0.0,735.0,1
210,210,-0.4885923222500266,-0.5,1,358.0,869.0,1.0,473.0,1
211,211,-0.9482681247810334,-0.9,1,258.0,988.0,1.0,214.0,1
212,212,0.7162174354442656,0.7,0,467.0,860.0,0.0,333.0,1
213,213,-0.20418422749112897,-0.2,1,459.0,725.0,1.0,156.0,1
214,214,-0.13957356643018115,-0.1,1,314.0,911.0,1.0,235.0,1
215,215,0.57963991296084,0.6,0,306.0,805.0,0.0,329.0,1
216,216,0.326800584851618,0.3,0,277.0,700.0,1.0,943.0,0
217,217,0.8602537944782505,0.9,0,406.0,655.0,0.0,259.0,1
218,218,-0.8756654845925482,-0.9,1,486.0,512.0,1.0,652.0,1
219,219,-0.5738165328352103,-0.6,1,426.0,649.0,1.0,485.0,1
220,220,0.6308048432844455,0.6,0,439.0,799.0,1.0,702.0,0
221,221,0.08082230787783296,0.1,0,441.0,666.0,0.0,173.0,1
222,222,0.031995175739943926,0.0,0,434.0,828.0,1.0,1518.0,0
223,223,0.905992598500801,0.9,0,495.0,987.0,0.0,238.0,1
224,224,0.34455378765952394,0.3,0,373.0,925.0,1.0,332.0,0
225,225,-0.7964980755595255,-0.8,1,391.0,942.0,1.0,137.0,1
226,226,0.0940886164513639,0.1,0,380.0,611.0,1.0,329.0,0
227,227,-0.4720366546863659,-0.5,1,351.0,923.0,1.0,286.0,1
228,228,0.6054872835034739,0.6,0,368.0,530.0,1.0,172.0,0
229,229,-0.009613601506788028,-0.0,1,283.0,666.0,0.0,391.0,0
230,230,0.9970555719399516,1.0,0,450.0,646.0,0.0,514.0,1
231,231,0.07310443931816435,0.1,0,260.0,539.0,0.0,491.0,1
232,232,0.18752055232589981,0.2,0,439.0,860.0,1.0,251.0,0
233,233,-0.8780397707173964,-0.9,1,259.0,974.0,1.0,837.0,1
234,234,-0.21171314417728904,-0.2,1,363.0,863.0,1.0,184.0,1
235,235,-0.279805307095919,-0.3,1,401.0,797.0,1.0,362.0,1
236,236,0.8280303727952434,0.8,0,297.0,798.0,0.0,475.0,1
237,237,-0.7871918899496428,-0.8,1,332.0,645.0,1.0,153.0,1
238,238,-0.32719494267607874,-0.3,1,439.0,619.0,1.0,332.0,1
239,239,-0.7018947661430863,-0.7,1,252.0,799.0,1.0,339.0,1
240,240,-0.4759516075831751,-0.5,1,357.0,881.0,1.0,472.0,1
241,241,0.9193140922450396,0.9,0,399.0,871.0,0.0,510.0,1
242,242,-0.2587675746013707,-0.3,1,253.0,904.0,0.0,403.0,0
243,243,-0.13542470717453337,-0.1,1,366.0,751.0,1.0,233.0,1
244,244,0.8792227330595788,0.9,0,415.0,882.0,0.0,783.0,1
245,245,0.5132317075079131,0.5,0,363.0,644.0,0.0,283.0,1
246,246,-0.13284207780998658,-0.1,1,324.0,896.0,1.0,1280.0,1
247,247,-0.22610966567090762,-0.2,1,365.0,795.0,1.0,260.0,1
248,248,0.174979538388639,0.2,0,349.0,571.0,0.0,1070.0,1
249,249,0.17021242057888442,0.2,0,476.0,854.0,0.0,2730.0,1
250,250,-0.5166702461708899,-0.5,1,429.0,925.0,1.0,126.0,1
251,251,-0.30465190246062646,-0.3,1,296.0,733.0,1.0,221.0,1
252,252,-0.998987725419181,-1.0,1,330.0,918.0,1.0,432.0,1
253,253,0.010029152324307455,0.0,0,454.0,534.0,0.0,252.0,1
254,254,0.6674839022586241,0.7,0,297.0,941.0,1.0,212.0,0
255,255,0.7207617893059459,0.7,0,371.0,675.0,0.0,284.0,1
256,256,-0.6113222864005674,-0.6,1,303.0,710.0,1.0,217.0,1
257,257,-0.4961498179053212,-0.5,1,493.0,532.0,1.0,795.0,1
258,258,-0.37586268875061535,-0.4,1,280.0,942.0,1.0,418.0,1
259,259,-0.42762659206965425,-0.4,1,489.0,872.0,1.0,329.0,1
260,260,0.05493685746584176,0.1,0,447.0,765.0,1.0,468.0,0
261,261,-0.4013895778912575,-0.4,1,338.0,568.0,1.0,234.0,1
262,262,0.376674596416271,0.4,0,461.0,728.0,1.0,541.0,0
263,263,-0.6969538841832386,-0.7,1,397.0,656.0,1.0,287.0,1
264,264,0.6119672371433795,0.6,0,250.0,798.0,0.0,562.0,1
265,265,0.2433035576256246,0.2,0,348.0,890.0,0.0,1932.0,1
266,266,-0.8734326131065184,-0.9,1,358.0,992.0,1.0,490.0,1
267,267,-0.9945746585248134,-1.0,1,369.0,798.0,1.0,343.0,1
268,268,-0.006789370069015588,-0.0,1,483.0,968.0,1.0,1419.0,1
269,269,-0.4215518002341019,-0.4,1,464.0,813.0,1.0,963.0,1
270,270,0.19572296471377704,0.2,0,461.0,890.0,1.0,919.0,0
271,271,0.5572495923097665,0.6,0,452.0,754.0,0.0,284.0,1
272,272,-0.7316108296752388,-0.7,1,337.0,926.0,1.0,567.0,1
273,273,0.7433163533720615,0.7,0,474.0,541.0,0.0,335.0,1
274,274,-0.6285344519157368,-0.6,1,426.0,621.0,1.0,383.0,1
275,275,0.9962706237711454,1.0,0,314.0,596.0,0.0,510.0,1
276,276,0.38466566449592365,0.4,0,370.0,639.0,0.0,291.0,1
277,277,0.43633664805110195,0.4,0,430.0,948.0,0.0,742.0,1
278,278,-0.2571649153670572,-0.3,1,394.0,849.0,0.0,537.0,0
279,279,-0.43633409538526813,-0.4,1,434.0,600.0,1.0,986.0,1
280,280,0.767345767021882,0.8,0,310.0,525.0,1.0,275.0,0
281,281,0.6894037011298022,0.7,0,382.0,512.0,0.0,366.0,1
282,282,0.42143884754167327,0.4,0,418.0,638.0,0.0,284.0,1
283,283,0.8656558672013595,0.9,0,371.0,880.0,0.0,619.0,1
284,284,0.570670730213775,0.6,0,430.0,571.0,0.0,1369.0,1
285,285,0.2489013498263215,0.2,0,303.0,998.0,1.0,1499.0,0
286,286,0.3263590054224961,0.3,0,281.0,536.0,0.0,303.0,1
287,287,0.2644874727726636,0.3,0,264.0,857.0,0.0,1169.0,1
288,288,-0.6421891017016532,-0.6,1,486.0,930.0,1.0,184.0,1
289,289,-0.10193770280952275,-0.1,1,330.0,541.0,1.0,189.0,1
290,290,0.18448599045364977,0.2,0,280.0,718.0,0.0,162.0,1
291,291,0.2538251621343015,0.3,0,493.0,716.0,1.0,451.0,0
292,292,-0.7149599844094672,-0.7,1,259.0,984.0,1.0,247.0,1
293,293,-0.67668757625802,-0.7,1,471.0,738.0,1.0,781.0,1
294,294,0.8219926275072833,0.8,0,448.0,914.0,1.0,358.0,0
295,295,0.28305837039168025,0.3,0,327.0,957.0,1.0,456.0,0
296,296,0.4604677441255791,0.5,0,426.0,943.0,0.0,881.0,1
297,297,-0.8167171629666659,-0.8,1,452.0,576.0,1.0,192.0,1
298,298,0.9696788662754772,1.0,0,270.0,630.0,0.0,1020.0,1
299,299,-0.6539429874186726,-0.7,1,463.0,636.0,1.0,881.0,1
300,300,0.7161921662302453,0.7,0,300.0,669.0,0.0,401.0,1
301,301,-0.18651073253758477,-0.2,1,438.0,508.0,1.0,124.0,1
302,302,-0.3127405826446863,-0.3,1,344.0,527.0,1.0,499.0,1
303,303,0.5463877968695103,0.5,0,266.0,831.0,0.0,1103.0,1
304,304,-0.9115920548012608,-0.9,1,363.0,525.0,1.0,142.0,1
305,305,-0.35701769643951065,-0.4,1,411.0,799.0,1.0,830.0,1
306,306,-0.013869198616551337,-0.0,1,358.0,776.0,1.0,896.0,1
307,307,-0.05201942744340449,-0.1,1,387.0,727.0,0.0,836.0,0
308,308,0.15010066561727364,0.2,0,268.0,657.0,0.0,775.0,1
309,309,0.6550974313943694,0.7,0,363.0,734.0,0.0,663.0,1
310,310,0.27644736125485947,0.3,0,439.0,526.0,1.0,225.0,0
311,311,-0.3861840052443537,-0.4,1,301.0,705.0,1.0,84.0,1
312,312,0.3609155842594751,0.4,0,348.0,949.0,0.0,213.0,1
313,313,0.44848999067430073,0.4,0,359.0,949.0,1.0,342.0,0
314,314,0.6437869603440289,0.6,0,452.0,574.0,0.0,224.0,1
315,315,0.7130314318092597,0.7,0,480.0,989.0,0.0,561.0,1
316,316,-0.04238389420346844,-0.0,1,253.0,597.0,1.0,430.0,1
317,317,0.25691880250874743,0.3,0,479.0,840.0,1.0,501.0,0
318,318,0.08049188470471402,0.1,0,346.0,979.0,1.0,545.0,0
319,319,-0.9484184915359115,-0.9,1,403.0,886.0,1.0,291.0,1
320,320,0.5028370959529491,0.5,0,490.0,506.0,0.0,694.0,1
321,321,0.8937578423113148,0.9,0,344.0,525.0,0.0,201.0,1
322,322,0.3567347443318787,0.4,0,489.0,596.0,0.0,685.0,1
323,323,0.9802216564365507,1.0,0,441.0,969.0,0.0,270.0,1
324,324,0.45930404688609006,0.5,0,381.0,651.0,1.0,458.0,0
325,325,-0.8035600720406708,-0.8,1,343.0,671.0,1.0,136.0,1
326,326,-0.16347154914577922,-0.2,1,326.0,503.0,0.0,641.0,0
327,327,-0.10972808885969454,-0.1,1,307.0,768.0,1.0,275.0,1
328,328,-0.9992010301393675,-1.0,1,284.0,760.0,1.0,176.0,1
329,329,-0.5893508464468402,-0.6,1,307.0,818.0,1.0,775.0,1
330,330,-0.028534410128884913,-0.0,1,306.0,796.0,1.0,648.0,1
331,331,0.536158694573708,0.5,0,454.0,900.0,0.0,896.0,1
332,332,0.5791306192340115,0.6,0,370.0,658.0,0.0,322.0,1
333,333,-0.2912200265982001,-0.3,1,324.0,999.0,0.0,1237.0,0
334,334,-0.9956325272066171,-1.0,1,265.0,902.0,1.0,383.0,1
335,335,0.699027604511347,0.7,0,259.0,947.0,0.0,474.0,1
336,336,-0.590645175050396,-0.6,1,367.0,532.0,1.0,371.0,1
337,337,0.15814390833431125,0.2,0,375.0,928.0,1.0,677.0,0
338,338,0.6920455284011198,0.7,0,254.0,846.0,0.0,360.0,1
339,339,0.18085423020821567,0.2,0,271.0,603.0,1.0,156.0,0
340,340,0.563446216931415,0.6,0,372.0,515.0,0.0,2593.0,1
341,341,-0.8498598328540263,-0.8,1,461.0,826.0,1.0,183.0,1
342,342,0.9764084453116473,1.0,0,394.0,818.0,0.0,218.0,1
343,343,0.08769490635912014,0.1,0,367.0,695.0,0.0,708.0,1
344,344,-0.21773197835089997,-0.2,1,340.0,859.0,1.0,1101.0,1
345,345,-0.8099299211734399,-0.8,1,307.0,772.0,1.0,671.0,1
346,346,0.5482015589942477,0.5,0,294.0,760.0,0.0,1186.0,1
347,347,-0.0669379812393347,-0.1,1,311.0,590.0,1.0,3469.0,1
348,348,0.6446200290249786,0.6,0,398.0,531.0,0.0,311.0,1
349,349,-0.7155497117992553,-0.7,1,299.0,622.0,1.0,879.0,1
350,350,0.5974640692564035,0.6,0,265.0,700.0,1.0,395.0,0
351,351,0.8150024494857115,0.8,0,280.0,784.0,0.0,356.0,1
352,352,-0.6421703659862255,-0.6,1,447.0,621.0,1.0,592.0,1
353,353,-0.6936436131728456,-0.7,1,405.0,620.0,1.0,355.0,1
354,354,0.598548071079138,0.6,0,386.0,936.0,0.0,1198.0,1
355,355,0.6168604906321911,0.6,0,415.0,684.0,0.0,551.0,1
356,356,0.22079589186350934,0.2,0,359.0,758.0,1.0,583.0,0
357,357,0.4070802537556266,0.4,0,293.0,883.0,0.0,754.0,1
358,358,-0.8064603172949063,-0.8,1,474.0,926.0,1.0,200.0,1
359,359,-0.4073467222085454,-0.4,1,446.0,715.0,1.0,199.0,1
360,360,-0.9369649454413023,-0.9,1,267.0,545.0,1.0,298.0,1
361,361,0.8892207703545845,0.9,0,271.0,533.0,0.0,506.0,1
362,362,0.09737538754733,0.1,0,274.0,547.0,0.0,379.0,1
363,363,0.2900297194773578,0.3,0,491.0,888.0,0.0,331.0,1
364,364,-0.15623198487135226,-0.2,1,453.0,846.0,1.0,131.0,1
365,365,0.5192592192942969,0.5,0,280.0,868.0,0.0,762.0,1
366,366,0.0433053828373795,0.0,0,481.0,832.0,1.0,1237.0,0
367,367,0.2998364280942063,0.3,0,449.0,699.0,0.0,1112.0,1
368,368,0.3284629611770953,0.3,0,426.0,596.0,0.0,408.0,1
369,369,-0.5992923478446992,-0.6,1,286.0,660.0,1.0,434.0,1
370,370,-0.2597946672666105,-0.3,1,484.0,758.0,0.0,248.0,0
371,371,-0.008497973473386766,-0.0,1,478.0,668.0,1.0,1914.0,1
372,372,-0.6192456799422419,-0.6,1,301.0,800.0,1.0,219.0,1
373,373,0.7354332984742946,0.7,0,263.0,757.0,0.0,280.0,1
374,374,0.7343644609601854,0.7,0,339.0,921.0,0.0,710.0,1
375,375,0.11936353345618311,0.1,0,266.0,923.0,0.0,1501.0,1
376,376,-0.5457067725445035,-0.5,1,264.0,698.0,1.0,128.0,1
377,377,-0.06852152068137252,-0.1,1,339.0,820.0,1.0,901.0,1
378,378,0.8255121804318504,0.8,0,324.0,739.0,0.0,487.0,1
379,379,-0.649900778008252,-0.6,1,282.0,705.0,1.0,183.0,1
380,380,-0.8124795154773199,-0.8,1,439.0,619.0,1.0,192.0,1
381,381,0.9427208743665292,0.9,0,451.0,808.0,0.0,701.0,1
382,382,-0.9665230572372709,-1.0,1,251.0,736.0,1.0,443.0,1
383,383,0.9717555591350124,1.0,0,341.0,542.0,0.0,537.0,1
384,384,-0.4144738620646842,-0.4,1,442.0,815.0,1.0,193.0,1
385,385,0.8704444969244416,0.9,0,278.0,805.0,0.0,217.0,1
386,386,-0.7186613658043315,-0.7,1,273.0,722.0,1.0,245.0,1
387,387,0.5976743778452305,0.6,0,363.0,650.0,0.0,857.0,1
388,388,-0.15999088965607067,-0.2,1,366.0,842.0,1.0,1522.0,1
389,389,-0.16082129113309618,-0.2,1,413.0,856.0,1.0,271.0,1
390,390,0.20989330223795988,0.2,0,261.0,786.0,1.0,1423.0,0
391,391,0.9069015389231057,0.9,0,408.0,859.0,0.0,353.0,1
392,392,0.5900412688504819,0.6,0,440.0,807.0,0.0,723.0,1
393,393,-0.66364900010769,-0.7,1,464.0,500.0,1.0,666.0,1
394,394,-0.6735944469577744,-0.7,1,360.0,687.0,1.0,413.0,1
395,395,0.5909898993419953,0.6,0,277.0,972.0,0.0,441.0,1
396,396,-0.24450663382291093,-0.2,1,270.0,521.0,1.0,99.0,1
397,397,0.28254934674189514,0.3,0,303.0,587.0,1.0,170.0,0
398,398,-0.738936126378481,-0.7,1,306.0,527.0,1.0,197.0,1
399,399,0.05198588837266671,0.1,0,341.0,941.0,1.0,458.0,0
400,400,0.9607252847393086,1.0,0,362.0,566.0,0.0,262.0,1
401,401,0.05631983123210338,0.1,0,481.0,684.0,1.0,285.0,0
402,402,0.9669895741036705,1.0,0,455.0,906.0,0.0,229.0,1
403,403,0.6518053272433393,0.7,0,256.0,952.0,0.0,782.0,1
404,404,-0.7566626754272552,-0.8,1,483.0,649.0,1.0,358.0,1
405,405,-0.7790137850078898,-0.8,1,349.0,540.0,1.0,301.0,1
406,406,0.9299671291659315,0.9,0,477.0,956.0,0.0,397.0,1
407,407,0.6985731915874349,0.7,0,443.0,904.0,0.0,123.0,1
408,408,-0.09366757868870401,-0.1,1,472.0,682.0,1.0,286.0,1
409,409,-0.2891406758668169,-0.3,1,419.0,965.0,1.0,676.0,1
410,410,0.6946738580082428,0.7,0,451.0,646.0,0.0,1543.0,1
411,411,-0.40530520406498116,-0.4,1,389.0,573.0,1.0,528.0,1
412,412,-0.44554654208065503,-0.4,1,371.0,705.0,1.0,304.0,1
413,413,0.0739871681249884,0.1,0,468.0,663.0,1.0,229.0,0
414,414,0.4473475548759651,0.4,0,321.0,724.0,0.0,195.0,1
415,415,-0.2374264673498594,-0.2,1,452.0,934.0,1.0,164.0,1
416,416,0.20523895108877555,0.2,0,263.0,833.0,0.0,1554.0,1
417,417,-0.1683147054856664,-0.2,1,402.0,874.0,1.0,1564.0,1
418,418,-0.8492250440419649,-0.8,1,456.0,645.0,1.0,379.0,1
419,419,0.45484666540881835,0.5,0,472.0,546.0,0.0,312.0,1
420,420,-0.879262102698428,-0.9,1,406.0,770.0,1.0,614.0,1
421,421,0.25682018268639917,0.3,0,277.0,791.0,1.0,162.0,0
422,422,0.4860339312468054,0.5,0,396.0,502.0,1.0,642.0,0
423,423,-0.8725291617366495,-0.9,1,470.0,620.0,1.0,380.0,1
424,424,0.037046409190186314,0.0,0,404.0,944.0,1.0,412.0,0
425,425,0.4941451830289094,0.5,0,320.0,610.0,0.0,210.0,1
426,426,-0.5940776148103049,-0.6,1,421.0,809.0,1.0,320.0,1
427,427,0.587157179419225,0.6,0,433.0,534.0,0.0,233.0,1
428,428,0.24674405019649215,0.2,0,434.0,943.0,0.0,603.0,1
429,429,-0.872895182450407,-0.9,1,393.0,700.0,1.0,267.0,1
430,430,-0.17078311606092877,-0.2,1,459.0,523.0,1.0,328.0,1
431,431,0.2532991450631712,0.3,0,443.0,745.0,1.0,212.0,0
432,432,0.25374162325371774,0.3,0,296.0,792.0,0.0,242.0,1
433,433,0.4244618462886063,0.4,0,366.0,963.0,0.0,571.0,1
434,434,0.5629643129259898,0.6,0,328.0,892.0,0.0,910.0,1
435,435,-0.9474028273343307,-0.9,1,294.0,881.0,1.0,225.0,1
436,436,-0.33615196040443673,-0.3,1,252.0,918.0,1.0,510.0,1
437,437,-0.10804162779754733,-0.1,1,287.0,820.0,1.0,253.0,1
438,438,0.7594280311320836,0.8,0,335.0,841.0,0.0,154.0,1
439,439,0.6928015960354823,0.7,0,465.0,609.0,0.0,136.0,1
440,440,-0.1073061017119441,-0.1,1,259.0,825.0,1.0,306.0,1
441,441,0.29754892885159756,0.3,0,346.0,962.0,0.0,2242.0,1
442,442,0.1091521942359941,0.1,0,263.0,824.0,0.0,403.0,1
443,443,-0.5239875303076595,-0.5,1,354.0,750.0,1.0,486.0,1
444,444,0.19362750230686565,0.2,0,448.0,679.0,1.0,823.0,0
445,445,-0.035860244807108144,-0.0,1,378.0,620.0,1.0,1162.0,1
446,446,-0.861842755765392,-0.9,1,476.0,920.0,1.0,904.0,1
447,447,0.7280159585155701,0.7,0,307.0,605.0,0.0,188.0,1
448,448,0.01449215802380377,0.0,0,456.0,885.0,1.0,79.0,0
449,449,-0.3729152360068524,-0.4,1,267.0,844.0,1.0,569.0,1
450,450,-0.4210477554168863,-0.4,1,348.0,942.0,1.0,360.0,1
451,451,0.5212872988441399,0.5,0,472.0,961.0,0.0,917.0,1
452,452,0.044889871523910774,0.0,0,453.0,943.0,1.0,174.0,0
453,453,0.865731910275068,0.9,0,441.0,868.0,0.0,821.0,1
454,454,-0.7486203689781064,-0.7,1,318.0,683.0,1.0,229.0,1
455,455,0.3153351304671257,0.3,0,319.0,774.0,0.0,367.0,1
456,456,0.258463741527428,0.3,0,308.0,579.0,0.0,673.0,1
457,457,-0.782126833349573,-0.8,1,497.0,794.0,1.0,209.0,1
458,458,-0.6399420117640289,-0.6,1,397.0,546.0,1.0,287.0,1
459,459,0.14201733585686682,0.1,0,432.0,766.0,0.0,382.0,1
460,460,0.26450920629823527,0.3,0,290.0,839.0,1.0,501.0,0
461,461,-0.40812530602422936,-0.4,1,452.0,809.0,1.0,259.0,1
462,462,0.34762667152722937,0.3,0,404.0,766.0,0.0,720.0,1
463,463,-0.8543168440800271,-0.9,1,441.0,784.0,1.0,335.0,1
464,464,0.34697241575233084,0.3,0,342.0,747.0,0.0,331.0,1
465,465,0.2787291822297018,0.3,0,439.0,886.0,1.0,875.0,0
466,466,0.7479776713521049,0.7,0,491.0,855.0,0.0,394.0,1
467,467,-0.3083890798212343,-0.3,1,376.0,649.0,1.0,675.0,1
468,468,-0.5418986762349915,-0.5,1,276.0,917.0,1.0,517.0,1
469,469,-0.6371742888389949,-0.6,1,478.0,579.0,1.0,173.0,1
470,470,-0.0732521396700021,-0.1,1,378.0,593.0,0.0,199.0,0
471,471,-0.5337507725653863,-0.5,1,278.0,808.0,1.0,134.0,1
472,472,0.7493621010923894,0.7,0,439.0,830.0,0.0,981.0,1
473,473,-0.1238703963727692,-0.1,1,300.0,845.0,1.0,965.0,1
474,474,-0.3689302672615584,-0.4,1,336.0,677.0,1.0,517.0,1
475,475,-0.8348183828358957,-0.8,1,417.0,729.0,1.0,554.0,1
476,476,0.877601693178415,0.9,0,465.0,814.0,0.0,481.0,1
477,477,-0.6283868148095428,-0.6,1,259.0,986.0,1.0,185.0,1
478,478,0.9130921473851938,0.9,0,372.0,729.0,0.0,719.0,1
479,479,0.520496458991927,0.5,0,344.0,751.0,0.0,1755.0,1
480,480,-0.5719298998451492,-0.6,1,464.0,597.0,1.0,659.0,1
481,481,0.432216983578108,0.4,0,272.0,744.0,0.0,574.0,1
482,482,0.7288576249383463,0.7,0,401.0,945.0,0.0,234.0,1
483,483,-0.5902980123835411,-0.6,1,342.0,542.0,1.0,286.0,1
484,484,-0.5655920331822217,-0.6,1,395.0,963.0,1.0,182.0,1
485,485,-0.5231426138520929,-0.5,1,297.0,861.0,1.0,682.0,1
486,486,-0.8160484792559708,-0.8,1,406.0,609.0,1.0,355.0,1
487,487,-0.3560180044033512,-0.4,1,276.0,699.0,1.0,945.0,1
488,488,0.4700315170798586,0.5,0,261.0,568.0,1.0,551.0,0
489,489,-0.2344552844259331,-0.2,1,424.0,623.0,1.0,683.0,1
490,490,-0.15340603847694934,-0.2,1,414.0,685.0,1.0,171.0,1
491,491,0.5642667193950093,0.6,0,411.0,767.0,0.0,2022.0,1
492,492,-0.9156234992278593,-0.9,1,411.0,510.0,1.0,179.0,1
493,493,-0.29738280022731023,-0.3,1,250.0,761.0,0.0,459.0,0
494,494,-0.004858088945991712,-0.0,1,471.0,883.0,0.0,276.0,0
495,495,0.5170748481078873,0.5,0,409.0,783.0,0.0,888.0,1
496,496,0.956443800711748,1.0,0,323.0,670.0,0.0,147.0,1
497,497,-0.010081126758400671,-0.0,1,291.0,856.0,0.0,483.0,0
498,498,0.2635777670806023,0.3,0,382.0,994.0,0.0,774.0,1
499,499,-0.33457467634215177,-0.3,1,284.0,572.0,1.0,1034.0,1
500,500,-0.7763842002655887,-0.8,1,388.0,775.0,1.0,217.0,1
501,501,0.6816283570469619,0.7,0,493.0,699.0,1.0,518.0,0
502,502,-0.2268796991296389,-0.2,1,391.0,791.0,1.0,628.0,1
503,503,0.4758816308311893,0.5,0,398.0,539.0,0.0,373.0,1
504,504,0.700846280572446,0.7,0,306.0,767.0,0.0,317.0,1
505,505,0.2955714856168665,0.3,0,479.0,892.0,0.0,939.0,1
506,506,0.32218121857417703,0.3,0,463.0,997.0,0.0,800.0,1
507,507,0.2151534893774425,0.2,0,453.0,856.0,1.0,631.0,0
508,508,-0.12007204451187281,-0.1,1,264.0,755.0,1.0,171.0,1
509,509,0.07635741635810911,0.1,0,402.0,899.0,1.0,649.0,0
510,510,0.740405254090583,0.7,0,317.0,767.0,1.0,216.0,0
511,511,-0.7896610359238265,-0.8,1,447.0,804.0,1.0,149.0,1
512,512,0.8790828505813364,0.9,0,435.0,965.0,0.0,410.0,1
513,513,0.30017467712410295,0.3,0,310.0,736.0,0.0,1014.0,1
514,514,-0.03802451114719796,-0.0,1,456.0,565.0,1.0,1229.0,1
515,515,-0.5326614528476348,-0.5,1,321.0,516.0,1.0,183.0,1
516,516,-0.6344048805677791,-0.6,1,347.0,636.0,1.0,537.0,1
517,517,0.07824020638175755,0.1,0,279.0,785.0,1.0,1626.0,0
518,518,-0.30591817827893797,-0.3,1,348.0,821.0,1.0,421.0,1
519,519,-0.04523670548221115,-0.0,1,348.0,689.0,1.0,653.0,1
520,520,0.7521465572861576,0.8,0,254.0,558.0,0.0,568.0,1
521,521,0.29370284519338496,0.3,0,443.0,727.0,1.0,730.0,0
522,522,0.16300507888975946,0.2,0,362.0,825.0,1.0,1133.0,0
523,523,0.9450228322768164,0.9,0,369.0,975.0,0.0,506.0,1
524,524,-0.3112074677386314,-0.3,1,268.0,624.0,1.0,298.0,1
525,525,-0.07201162639995351,-0.1,1,322.0,538.0,1.0,1710.0,1
526,526,0.21391770682430988,0.2,0,481.0,759.0,0.0,450.0,1
527,527,0.7414506499475082,0.7,0,431.0,801.0,0.0,288.0,1
528,528,-0.1397186867008855,-0.1,1,271.0,511.0,1.0,518.0,1
529,529,0.37589535240805105,0.4,0,343.0,937.0,0.0,1110.0,1
530,530,0.8380896307686723,0.8,0,299.0,666.0,0.0,595.0,1
531,531,-0.78986765186812,-0.8,1,457.0,936.0,1.0,447.0,1
532,532,0.6198187366549113,0.6,0,448.0,668.0,0.0,284.0,1
533,533,-0.0037894597412737596,-0.0,1,472.0,549.0,0.0,489.0,0
534,534,0.1874162742365424,0.2,0,404.0,860.0,0.0,716.0,1
535,535,0.7176526116325308,0.7,0,407.0,926.0,0.0,517.0,1
536,536,0.41360359463092333,0.4,0,347.0,859.0,1.0,604.0,0
537,537,0.1019834301123328,0.1,0,460.0,973.0,1.0,647.0,0
538,538,0.18121199570981772,0.2,0,290.0,551.0,0.0,669.0,1
539,539,-0.6653894934621671,-0.7,1,292.0,957.0,1.0,371.0,1
540,540,0.465916102922306,0.5,0,253.0,924.0,0.0,213.0,1
541,541,0.5211212921680606,0.5,0,360.0,972.0,0.0,228.0,1
542,542,-0.10376443751859354,-0.1,1,457.0,984.0,0.0,429.0,0
543,543,0.44980397120492843,0.4,0,314.0,705.0,0.0,1301.0,1
544,544,0.14503106687169098,0.1,0,469.0,984.0,1.0,197.0,0
545,545,0.3288095826192321,0.3,0,477.0,655.0,0.0,468.0,1
546,546,-0.07144407557195209,-0.1,1,492.0,869.0,0.0,369.0,0
547,547,-0.13316046543899662,-0.1,1,384.0,979.0,1.0,427.0,1
548,548,0.4797219629479059,0.5,0,295.0,904.0,0.0,831.0,1
549,549,-0.8964714588228366,-0.9,1,317.0,595.0,1.0,238.0,1
550,550,0.4053846386259272,0.4,0,447.0,527.0,0.0,786.0,1
551,551,0.1517176515098213,0.2,0,411.0,860.0,1.0,239.0,0
552,552,-0.3866803861421535,-0.4,1,471.0,583.0,1.0,216.0,1
553,553,0.675669261091091,0.7,0,343.0,772.0,1.0,235.0,0
554,554,0.8093990685422232,0.8,0,428.0,711.0,0.0,821.0,1
555,555,0.7124767344061065,0.7,0,256.0,638.0,0.0,1456.0,1
556,556,-0.22157931775835205,-0.2,1,461.0,771.0,1.0,738.0,1
557,557,0.7734916314070119,0.8,0,287.0,677.0,0.0,226.0,1
558,558,0.2879779245953069,0.3,0,365.0,695.0,0.0,880.0,1
559,559,-0.020834707706184563,-0.0,1,253.0,815.0,0.0,302.0,0
560,560,-0.3224864907984546,-0.3,1,317.0,719.0,1.0,1424.0,1
561,561,-0.48463266702919516,-0.5,1,454.0,512.0,1.0,244.0,1
562,562,0.4673958918693071,0.5,0,488.0,955.0,0.0,807.0,1
563,563,-0.3254828728078838,-0.3,1,456.0,622.0,1.0,422.0,1
564,564,-0.6486050923665159,-0.6,1,465.0,575.0,1.0,410.0,1
565,565,-0.8470687923004914,-0.8,1,393.0,937.0,1.0,270.0,1
566,566,-0.7407130429241378,-0.7,1,363.0,960.0,1.0,417.0,1
567,567,0.08209182818158745,0.1,0,379.0,719.0,0.0,322.0,1
568,568,-0.07661732261936138,-0.1,1,330.0,704.0,1.0,216.0,1
569,569,-0.3601705082069411,-0.4,1,345.0,576.0,1.0,859.0,1
570,570,-0.9377030025289916,-0.9,1,385.0,922.0,1.0,163.0,1
571,571,-0.17363419989307327,-0.2,1,493.0,594.0,1.0,173.0,1
572,572,0.7712781830881446,0.8,0,276.0,810.0,0.0,404.0,1
573,573,0.5291732933849063,0.5,0,374.0,698.0,0.0,438.0,1
574,574,-0.6844652833969662,-0.7,1,287.0,978.0,1.0,345.0,1
575,575,-0.7170580363177883,-0.7,1,376.0,643.0,1.0,321.0,1
576,576,0.5881540551132898,0.6,0,336.0,991.0,1.0,203.0,0
577,577,0.8821067006000036,0.9,0,410.0,882.0,0.0,118.0,1
578,578,-0.6421399500466742,-0.6,1,343.0,898.0,1.0,129.0,1
579,579,-0.39790231642108465,-0.4,1,354.0,732.0,1.0,314.0,1
580,580,-0.5600474260852768,-0.6,1,384.0,903.0,1.0,453.0,1
581,581,-0.5176257904178394,-0.5,1,408.0,991.0,1.0,291.0,1
582,582,0.22204637275908734,0.2,0,260.0,925.0,1.0,625.0,0
583,583,-0.1681655060284637,-0.2,1,363.0,853.0,1.0,764.0,1
584,584,0.45508769193978393,0.5,0,498.0,519.0,1.0,303.0,0
585,585,-0.4297742041254742,-0.4,1,456.0,772.0,1.0,92.0,1
586,586,0.6033498363331391,0.6,0,352.0,689.0,1.0,179.0,0
587,587,-0.5045668117199504,-0.5,1,470.0,688.0,1.0,1152.0,1
588,588,0.22982539217261944,0.2,0,487.0,895.0,0.0,248.0,1
589,589,0.5993378341337652,0.6,0,252.0,731.0,0.0,177.0,1
590,590,0.9411698141204565,0.9,0,484.0,818.0,0.0,498.0,1
591,591,-0.18722413914283598,-0.2,1,375.0,658.0,1.0,2277.0,1
592,592,-0.834181435441234,-0.8,1,430.0,802.0,1.0,388.0,1
593,593,0.16017357403687016,0.2,0,494.0,850.0,0.0,506.0,1
594,594,-0.025548222312624214,-0.0,1,472.0,523.0,1.0,155.0,1
595,595,0.09059033423499785,0.1,0,411.0,928.0,1.0,631.0,0
596,596,-0.9251872943706829,-0.9,1,284.0,754.0,1.0,262.0,1
597,597,-0.5275388842680426,-0.5,1,378.0,706.0,1.0,216.0,1
598,598,0.12736776151866236,0.1,0,445.0,939.0,0.0,216.0,1
599,599,-0.1342214794370491,-0.1,1,475.0,602.0,1.0,953.0,1
600,600,-0.5547601875731341,-0.6,1,420.0,653.0,1.0,487.0,1
601,601,0.22060507307500932,0.2,0,318.0,747.0,1.0,395.0,0
602,602,0.4632922927043668,0.5,0,316.0,578.0,0.0,356.0,1
603,603,-0.055997402329659884,-0.1,1,498.0,554.0,1.0,758.0,1
604,604,-0.5865284899463683,-0.6,1,405.0,847.0,1.0,358.0,1
605,605,0.71850444959514,0.7,0,319.0,564.0,0.0,997.0,1
606,606,-0.8673211164750723,-0.9,1,265.0,529.0,1.0,246.0,1
607,607,0.7870178328937667,0.8,0,449.0,561.0,0.0,990.0,1
608,608,0.6845155602552508,0.7,0,453.0,624.0,0.0,173.0,1
609,609,-0.9630912464506256,-1.0,1,347.0,759.0,1.0,174.0,1
610,610,-0.6960299358245108,-0.7,1,300.0,505.0,1.0,595.0,1
611,611,-0.552763843226671,-0.6,1,480.0,719.0,1.0,71.0,1
612,612,-0.5762982366697973,-0.6,1,464.0,864.0,1.0,202.0,1
613,613,0.2933911772584694,0.3,0,412.0,516.0,1.0,452.0,0
614,614,0.0641821607572286,0.1,0,333.0,781.0,1.0,336.0,0
615,615,-0.04757761378573111,-0.0,1,489.0,719.0,1.0,272.0,1
616,616,-0.20580487622977506,-0.2,1,437.0,661.0,1.0,442.0,1
617,617,0.47976059237550817,0.5,0,479.0,762.0,0.0,849.0,1
618,618,0.1411783344851043,0.1,0,348.0,709.0,1.0,163.0,0
619,619,0.4830159721417884,0.5,0,366.0,897.0,0.0,1677.0,1
620,620,-0.6946570681772448,-0.7,1,395.0,838.0,1.0,357.0,1
621,621,0.43521369278123556,0.4,0,301.0,777.0,0.0,642.0,1
622,622,-0.9275596268966031,-0.9,1,362.0,677.0,1.0,171.0,1
623,623,-0.9307656222847374,-0.9,1,425.0,601.0,1.0,174.0,1
624,624,-0.6708951502410008,-0.7,1,448.0,770.0,1.0,202.0,1
625,625,0.3958578932210841,0.4,0,388.0,597.0,1.0,345.0,0
626,626,0.2606933582347377,0.3,0,358.0,748.0,1.0,514.0,0
627,627,0.9318754052471965,0.9,0,496.0,900.0,0.0,284.0,1
628,628,-0.9714803099016278,-1.0,1,307.0,954.0,1.0,459.0,1
629,629,0.4460272452507501,0.4,0,499.0,959.0,1.0,362.0,0
630,630,-0.03601073884639949,-0.0,1,321.0,629.0,1.0,440.0,1
631,631,-0.1431959411797954,-0.1,1,480.0,899.0,1.0,181.0,1
632,632,0.6139558317031555,0.6,0,310.0,867.0,0.0,383.0,1
633,633,0.5871542134019738,0.6,0,412.0,746.0,0.0,292.0,1
634,634,0.48236125325912194,0.5,0,280.0,912.0,0.0,338.0,1
635,635,-0.8098711407124841,-0.8,1,370.0,745.0,1.0,155.0,1
636,636,-0.96163797371088,-1.0,1,453.0,829.0,1.0,498.0,1
637,637,0.028932682312743152,0.0,0,305.0,521.0,0.0,594.0,1
638,638,-0.7948619883571186,-0.8,1,346.0,511.0,1.0,183.0,1
639,639,0.5737180047376058,0.6,0,286.0,862.0,1.0,122.0,0
640,640,-0.5830364475799421,-0.6,1,272.0,933.0,1.0,335.0,1
641,641,-0.17913275626087755,-0.2,1,355.0,600.0,1.0,1205.0,1
642,642,-0.7406478136836276,-0.7,1,334.0,530.0,1.0,366.0,1
643,643,0.803195214719524,0.8,0,467.0,676.0,0.0,307.0,1
644,644,-0.07260468219214955,-0.1,1,427.0,870.0,1.0,603.0,1
645,645,0.44868595597175887,0.4,0,406.0,518.0,0.0,1446.0,1
646,646,0.6768244764259856,0.7,0,395.0,649.0,0.0,516.0,1
647,647,0.07855279377044755,0.1,0,302.0,546.0,1.0,2092.0,0
648,648,-0.5683470917350901,-0.6,1,390.0,674.0,1.0,536.0,1
649,649,0.34115786494900435,0.3,0,472.0,546.0,1.0,552.0,0
650,650,0.7618851064472036,0.8,0,395.0,944.0,0.0,621.0,1
651,651,-0.1603951410724831,-0.2,1,307.0,820.0,1.0,303.0,1
652,652,-0.3985401098828969,-0.4,1,288.0,871.0,1.0,341.0,1
653,653,0.4179400248016243,0.4,0,477.0,510.0,0.0,433.0,1
654,654,0.6400311228089957,0.6,0,473.0,554.0,0.0,243.0,1
655,655,-0.8607579280038071,-0.9,1,274.0,912.0,1.0,154.0,1
656,656,-0.5962682896534279,-0.6,1,443.0,661.0,1.0,746.0,1
657,657,-0.6195196491662536,-0.6,1,269.0,634.0,1.0,457.0,1
658,658,0.2139403297057978,0.2,0,377.0,609.0,0.0,1324.0,1
659,659,0.9965123832623901,1.0,0,253.0,543.0,0.0,344.0,1
660,660,0.3992897202438883,0.4,0,397.0,814.0,0.0,209.0,1
661,661,0.5989780383021717,0.6,0,486.0,929.0,1.0,305.0,0
662,662,-0.44478237745394833,-0.4,1,440.0,670.0,1.0,600.0,1
663,663,-0.5624230637187597,-0.6,1,324.0,578.0,1.0,758.0,1
664,664,-0.7041057934292465,-0.7,1,382.0,559.0,1.0,189.0,1
665,665,-0.10378484607319804,-0.1,1,349.0,776.0,1.0,525.0,1
666,666,-0.6529677654204782,-0.7,1,368.0,627.0,1.0,415.0,1
667,667,-0.5146998516683654,-0.5,1,405.0,575.0,0.0,320.0,0
668,668,0.7944414478452153,0.8,0,356.0,751.0,0.0,1283.0,1
669,669,0.5121037688370633,0.5,0,477.0,844.0,0.0,599.0,1
670,670,0.6180779915524042,0.6,0,296.0,857.0,0.0,1487.0,1
671,671,-0.5316784886459558,-0.5,1,468.0,758.0,1.0,414.0,1
672,672,0.32671262554959846,0.3,0,471.0,560.0,0.0,2059.0,1
673,673,0.32165593185760244,0.3,0,288.0,920.0,0.0,322.0,1
674,674,-0.7637978477080485,-0.8,1,280.0,553.0,1.0,757.0,1
675,675,-0.028067115146655608,-0.0,1,458.0,677.0,1.0,185.0,1
676,676,-0.20123041823031285,-0.2,1,271.0,944.0,1.0,85.0,1
677,677,-0.7648811701986593,-0.8,1,422.0,544.0,1.0,64.0,1
678,678,-0.5782064220869518,-0.6,1,488.0,536.0,1.0,296.0,1
679,679,-0.3172296170438007,-0.3,1,367.0,753.0,1.0,600.0,1
680,680,0.44637115550335027,0.4,0,360.0,538.0,0.0,362.0,1
681,681,0.6030888083042631,0.6,0,449.0,573.0,0.0,958.0,1
682,682,0.8810094672973705,0.9,0,457.0,800.0,0.0,333.0,1
683,683,0.1492708948402257,0.1,0,467.0,994.0,1.0,269.0,0
684,684,0.8092109262656659,0.8,0,419.0,500.0,0.0,311.0,1
685,685,0.5572816858513701,0.6,0,415.0,781.0,0.0,424.0,1
686,686,0.19799017564687005,0.2,0,338.0,525.0,0.0,1407.0,1
687,687,-0.7347614930621111,-0.7,1,263.0,675.0,1.0,182.0,1
688,688,-0.6838949575048494,-0.7,1,421.0,744.0,1.0,505.0,1
689,689,-0.10772498763883354,-0.1,1,363.0,639.0,1.0,458.0,1
690,690,-0.5041786326885407,-0.5,1,261.0,537.0,1.0,642.0,1
691,691,-0.08770273097774317,-0.1,1,418.0,646.0,1.0,836.0,1
692,692,-0.8006824831313697,-0.8,1,257.0,833.0,1.0,430.0,1
693,693,0.8924061535078534,0.9,0,358.0,850.0,0.0,212.0,1
694,694,0.534571732207199,0.5,0,337.0,573.0,0.0,460.0,1
695,695,0.45810114213116715,0.5,0,296.0,684.0,0.0,300.0,1
696,696,0.7552912150240414,0.8,0,295.0,834.0,0.0,881.0,1
697,697,0.5034075395338524,0.5,0,486.0,580.0,0.0,174.0,1
698,698,0.4823368605245284,0.5,0,264.0,724.0,0.0,402.0,1
699,699,-0.4985944082391003,-0.5,1,308.0,848.0,1.0,214.0,1
700,700,-0.0871869659465907,-0.1,1,259.0,856.0,1.0,435.0,1
701,701,-0.2797107205464353,-0.3,1,469.0,593.0,1.0,478.0,1
702,702,-0.1749013266810655,-0.2,1,390.0,886.0,1.0,514.0,1
703,703,-0.3527247472596231,-0.4,1,315.0,828.0,1.0,1117.0,1
704,704,-0.8042167414417973,-0.8,1,312.0,734.0,1.0,404.0,1
705,705,-0.03174999109097354,-0.0,1,280.0,928.0,0.0,282.0,0
706,706,0.2958551547125028,0.3,0,469.0,649.0,0.0,1882.0,1
707,707,0.8265670823052189,0.8,0,326.0,648.0,0.0,196.0,1
708,708,0.9523024352428426,1.0,0,251.0,525.0,0.0,544.0,1
709,709,-0.258248459999048,-0.3,1,468.0,728.0,1.0,844.0,1
710,710,-0.5162158651799749,-0.5,1,429.0,900.0,1.0,231.0,1
711,711,0.6523128246546959,0.7,0,489.0,668.0,0.0,923.0,1
712,712,-0.7375577996585589,-0.7,1,484.0,547.0,1.0,699.0,1
713,713,0.6680763074120921,0.7,0,315.0,767.0,0.0,538.0,1
714,714,0.01635487866202845,0.0,0,393.0,570.0,1.0,167.0,0
715,715,-0.2410238687975217,-0.2,1,300.0,708.0,1.0,212.0,1
716,716,0.048482560829030685,0.0,0,420.0,831.0,1.0,309.0,0
717,717,0.3649999926748473,0.4,0,309.0,680.0,0.0,211.0,1
718,718,-0.16164083942169416,-0.2,1,390.0,913.0,0.0,837.0,0
719,719,0.7143587902760133,0.7,0,434.0,848.0,0.0,318.0,1
720,720,-0.19543187758802372,-0.2,1,337.0,924.0,1.0,589.0,1
721,721,0.6157451780928962,0.6,0,386.0,557.0,0.0,347.0,1
722,722,0.4273861209616845,0.4,0,308.0,894.0,0.0,108.0,1
723,723,0.8646155959067445,0.9,0,497.0,846.0,0.0,237.0,1
724,724,0.4886499443620158,0.5,0,439.0,778.0,0.0,663.0,1
725,725,0.6372971144473405,0.6,0,279.0,739.0,0.0,302.0,1
726,726,-0.33929556530366756,-0.3,1,449.0,897.0,1.0,584.0,1
727,727,0.3332915508239347,0.3,0,371.0,593.0,0.0,376.0,1
728,728,0.6144602081026298,0.6,0,447.0,852.0,1.0,361.0,0
729,729,0.8562821710505684,0.9,0,363.0,861.0,0.0,336.0,1
730,730,-0.2984634862920974,-0.3,1,262.0,790.0,1.0,178.0,1
731,731,-0.8638110312844705,-0.9,1,337.0,915.0,1.0,118.0,1
732,732,0.5743051914386366,0.6,0,355.0,724.0,0.0,331.0,1
733,733,-0.7065906007794123,-0.7,1,400.0,781.0,1.0,329.0,1
734,734,-0.8915028909984102,-0.9,1,492.0,996.0,1.0,442.0,1
735,735,0.9945059571195347,1.0,0,485.0,783.0,0.0,192.0,1
736,736,-0.42807157469263646,-0.4,1,300.0,871.0,1.0,429.0,1
737,737,0.7073496733979927,0.7,0,375.0,773.0,0.0,1362.0,1
738,738,-0.10282624485334702,-0.1,1,412.0,803.0,1.0,935.0,1
739,739,0.553707075707067,0.6,0,321.0,764.0,0.0,1405.0,1
740,740,0.86146405881502,0.9,0,358.0,784.0,0.0,258.0,1
741,741,0.6282345589185574,0.6,0,417.0,994.0,0.0,979.0,1
742,742,0.08870328040083009,0.1,0,381.0,800.0,1.0,1749.0,0
743,743,0.010236414968228802,0.0,0,373.0,583.0,0.0,754.0,1
744,744,0.614960618291317,0.6,0,401.0,698.0,0.0,391.0,1
745,745,-0.6921593477095516,-0.7,1,405.0,750.0,1.0,465.0,1
746,746,-0.3241877484148241,-0.3,1,326.0,567.0,1.0,497.0,1
747,747,0.7822059330091042,0.8,0,359.0,511.0,0.0,250.0,1
748,748,-0.4437247848194801,-0.4,1,356.0,551.0,1.0,413.0,1
749,749,0.7382355808555958,0.7,0,445.0,912.0,0.0,593.0,1
750,750,-0.32818613112940564,-0.3,1,482.0,839.0,1.0,399.0,1
751,751,-0.48863410328603374,-0.5,1,419.0,604.0,1.0,137.0,1
752,752,-0.4921260216963159,-0.5,1,491.0,910.0,1.0,349.0,1
753,753,0.6014079040127704,0.6,0,361.0,511.0,0.0,558.0,1
754,754,-0.5237773441398543,-0.5,1,365.0,945.0,1.0,700.0,1
755,755,-0.7702720891763226,-0.8,1,437.0,742.0,1.0,361.0,1
756,756,-0.42738428333386125,-0.4,1,446.0,982.0,1.0,402.0,1
757,757,-0.41311720138282393,-0.4,1,432.0,819.0,1.0,279.0,1
758,758,-0.44754928918934667,-0.4,1,358.0,972.0,1.0,240.0,1
759,759,0.15380564200662228,0.2,0,492.0,973.0,0.0,455.0,1
760,760,0.3867726474940425,0.4,0,374.0,705.0,1.0,371.0,0
761,761,0.17194473183755643,0.2,0,494.0,984.0,0.0,622.0,1
762,762,-0.41801819799145457,-0.4,1,424.0,608.0,1.0,888.0,1
763,763,0.134460047758298,0.1,0,499.0,617.0,0.0,974.0,1
764,764,0.9421348698677605,0.9,0,449.0,649.0,0.0,512.0,1
765,765,-0.8546363276306013,-0.9,1,428.0,686.0,1.0,166.0,1
766,766,-0.48640316790492943,-0.5,1,303.0,846.0,1.0,171.0,1
767,767,-0.8653921033965182,-0.9,1,310.0,740.0,1.0,290.0,1
768,768,-0.03811365040639192,-0.0,1,339.0,805.0,1.0,276.0,1
769,769,-0.2485755341127891,-0.2,1,351.0,962.0,1.0,247.0,1
770,770,0.5663492235820051,0.6,0,358.0,535.0,0.0,517.0,1
771,771,0.8457072439227955,0.8,0,318.0,531.0,0.0,311.0,1
772,772,-0.12177291362520593,-0.1,1,405.0,784.0,1.0,411.0,1
773,773,0.555621955388609,0.6,0,436.0,917.0,0.0,1187.0,1
774,774,0.236156740111215,0.2,0,269.0,791.0,1.0,1280.0,0
775,775,-0.885794039578873,-0.9,1,381.0,923.0,1.0,276.0,1
776,776,-0.6372122057125245,-0.6,1,280.0,728.0,1.0,272.0,1
777,777,0.10054432127364366,0.1,0,476.0,603.0,0.0,341.0,1
778,778,-0.7757259096696494,-0.8,1,463.0,545.0,1.0,872.0,1
779,779,0.08924777328930467,0.1,0,341.0,897.0,1.0,262.0,0
780,780,-0.3317459021882403,-0.3,1,474.0,607.0,1.0,509.0,1
781,781,-0.7414840935580711,-0.7,1,421.0,556.0,1.0,433.0,1
782,782,0.8018656461167337,0.8,0,378.0,682.0,0.0,840.0,1
783,783,-0.7452313365012959,-0.7,1,473.0,943.0,1.0,264.0,1
784,784,0.5932357064056943,0.6,0,264.0,673.0,0.0,283.0,1
785,785,-0.9782746848852755,-1.0,1,252.0,695.0,1.0,173.0,1
786,786,0.3908988540182994,0.4,0,446.0,516.0,1.0,328.0,0
787,787,0.4863995959359062,0.5,0,445.0,949.0,0.0,626.0,1
788,788,0.3139819368360097,0.3,0,460.0,547.0,0.0,1343.0,1
789,789,0.5101936081261063,0.5,0,346.0,811.0,0.0,383.0,1
790,790,0.4819004260654729,0.5,0,379.0,844.0,1.0,807.0,0
791,791,-0.0776284110212162,-0.1,1,479.0,672.0,1.0,239.0,1
792,792,-0.5927525255703507,-0.6,1,351.0,912.0,1.0,697.0,1
793,793,-0.36876833949863785,-0.4,1,373.0,941.0,1.0,336.0,1
794,794,0.9916089512558321,1.0,0,285.0,559.0,0.0,796.0,1
795,795,0.4686979095132282,0.5,0,486.0,931.0,0.0,283.0,1
796,796,-0.649172022961821,-0.6,1,383.0,674.0,1.0,393.0,1
797,797,-0.6107590333002897,-0.6,1,281.0,705.0,1.0,134.0,1
798,798,-0.883792216934923,-0.9,1,469.0,981.0,1.0,300.0,1
799,799,0.9323019807338324,0.9,0,303.0,547.0,0.0,220.0,1
800,800,0.3596728183960616,0.4,0,479.0,622.0,0.0,1559.0,1
801,801,-0.5544006106152468,-0.6,1,475.0,760.0,1.0,365.0,1
802,802,0.7484756310772804,0.7,0,498.0,541.0,0.0,411.0,1
803,803,-0.41636551092079777,-0.4,1,342.0,587.0,1.0,261.0,1
804,804,0.5858788221804994,0.6,0,450.0,683.0,0.0,377.0,1
805,805,0.1580461333344394,0.2,0,444.0,676.0,0.0,1410.0,1
806,806,-0.37893179530189336,-0.4,1,396.0,960.0,1.0,754.0,1
807,807,-0.1987781801614965,-0.2,1,495.0,887.0,1.0,608.0,1
808,808,0.22550147926584074,0.2,0,296.0,798.0,0.0,1046.0,1
809,809,-0.8028388620089719,-0.8,1,273.0,971.0,1.0,286.0,1
810,810,-0.2730283630674393,-0.3,1,250.0,818.0,1.0,312.0,1
811,811,0.39828888839117393,0.4,0,332.0,639.0,1.0,1159.0,0
812,812,0.07953994432360645,0.1,0,327.0,665.0,0.0,788.0,1
813,813,0.3641898526151943,0.4,0,492.0,540.0,1.0,298.0,0
814,814,0.6506397857174211,0.7,0,327.0,719.0,0.0,354.0,1
815,815,-0.5343353287877477,-0.5,1,480.0,595.0,1.0,565.0,1
816,816,-0.8371726545247598,-0.8,1,356.0,622.0,1.0,492.0,1
817,817,-0.5333603859431948,-0.5,1,319.0,555.0,1.0,96.0,1
818,818,0.9946437600727829,1.0,0,303.0,524.0,0.0,283.0,1
819,819,-0.83358761361864,-0.8,1,257.0,549.0,1.0,544.0,1
820,820,0.3603066238141943,0.4,0,417.0,600.0,1.0,603.0,0
821,821,0.13123390683354597,0.1,0,435.0,682.0,1.0,163.0,0
822,822,-0.9551197518490415,-1.0,1,465.0,696.0,1.0,239.0,1
823,823,-0.21530061443477,-0.2,1,381.0,881.0,0.0,328.0,0
824,824,0.6713596664657806,0.7,0,277.0,822.0,0.0,431.0,1
825,825,0.2566871878517729,0.3,0,376.0,668.0,0.0,946.0,1
826,826,-0.5119650067250203,-0.5,1,293.0,627.0,1.0,170.0,1
827,827,0.013332545870960555,0.0,0,416.0,574.0,1.0,370.0,0
828,828,0.7606591106998564,0.8,0,395.0,565.0,0.0,660.0,1
829,829,0.7975023019056529,0.8,0,271.0,949.0,0.0,250.0,1
830,830,0.9679251038748504,1.0,0,368.0,671.0,0.0,1181.0,1
831,831,0.18555346193569555,0.2,0,314.0,943.0,0.0,1333.0,1
832,832,-0.22678982696303684,-0.2,1,418.0,543.0,1.0,779.0,1
833,833,0.16951879632469158,0.2,0,251.0,883.0,0.0,1046.0,1
834,834,0.08752569427075985,0.1,0,317.0,653.0,1.0,440.0,0
835,835,-0.03807542187076485,-0.0,1,350.0,947.0,1.0,263.0,1
836,836,0.3308454241039829,0.3,0,338.0,881.0,0.0,371.0,1
837,837,0.7849229533241,0.8,0,384.0,806.0,0.0,220.0,1
838,838,-0.6204794720563787,-0.6,1,436.0,659.0,1.0,475.0,1
839,839,0.2875162223568628,0.3,0,252.0,948.0,0.0,240.0,1
840,840,-0.29407510751968235,-0.3,1,479.0,560.0,1.0,251.0,1
841,841,-0.10751832048985621,-0.1,1,484.0,940.0,1.0,646.0,1
842,842,0.2007234174638568,0.2,0,454.0,758.0,0.0,788.0,1
843,843,-0.6534638866983473,-0.7,1,465.0,521.0,1.0,264.0,1
844,844,-0.7370268000342821,-0.7,1,353.0,798.0,1.0,209.0,1
845,845,0.24859878523746204,0.2,0,447.0,961.0,1.0,1592.0,0
846,846,0.9224237037799066,0.9,0,257.0,753.0,0.0,360.0,1
847,847,-0.31175604402439183,-0.3,1,440.0,748.0,1.0,722.0,1
848,848,-0.6919081624477557,-0.7,1,460.0,792.0,0.0,248.0,0
849,849,0.27969842695180436,0.3,0,430.0,804.0,1.0,966.0,0
850,850,0.7714699237850959,0.8,0,339.0,870.0,0.0,271.0,1
851,851,0.2543769621382217,0.3,0,290.0,619.0,0.0,1111.0,1
852,852,-0.9872406013175106,-1.0,1,447.0,882.0,1.0,421.0,1
853,853,-0.2626453142791729,-0.3,1,447.0,967.0,1.0,2136.0,1
854,854,-0.39860452334592145,-0.4,1,366.0,997.0,1.0,147.0,1
855,855,-0.9962246601103977,-1.0,1,360.0,923.0,1.0,227.0,1
856,856,0.37906718515120574,0.4,0,455.0,777.0,1.0,488.0,0
857,857,-0.8890851865801133,-0.9,1,410.0,789.0,1.0,211.0,1
858,858,-0.2643763242404942,-0.3,1,468.0,803.0,1.0,1249.0,1
859,859,0.2894882134236647,0.3,0,427.0,683.0,0.0,800.0,1
860,860,-0.31358465604351693,-0.3,1,441.0,687.0,1.0,282.0,1
861,861,0.9788475592514359,1.0,0,447.0,558.0,0.0,345.0,1
862,862,0.35298686672951884,0.4,0,437.0,660.0,0.0,673.0,1
863,863,-0.31007839095241185,-0.3,1,341.0,719.0,1.0,240.0,1
864,864,0.7033632964495473,0.7,0,499.0,571.0,0.0,400.0,1
865,865,-0.5567351337721573,-0.6,1,355.0,910.0,1.0,215.0,1
866,866,-0.3884149635941514,-0.4,1,428.0,621.0,1.0,291.0,1
867,867,0.19393389774183678,0.2,0,362.0,816.0,0.0,852.0,1
868,868,-0.12154932209866876,-0.1,1,437.0,819.0,1.0,164.0,1
869,869,-0.5427767885115133,-0.5,1,300.0,912.0,1.0,458.0,1
870,870,-0.21918704110090825,-0.2,1,484.0,824.0,1.0,682.0,1
871,871,0.540474125524115,0.5,0,366.0,799.0,1.0,165.0,0
872,872,0.040913290212215125,0.0,0,262.0,682.0,1.0,316.0,0
873,873,0.9041723096560967,0.9,0,482.0,504.0,0.0,604.0,1
874,874,0.8653045506026122,0.9,0,479.0,854.0,0.0,497.0,1
875,875,-0.5943915255144947,-0.6,1,302.0,638.0,1.0,440.0,1
876,876,-0.03433686757836796,-0.0,1,298.0,719.0,0.0,463.0,0
877,877,-0.9514581586622273,-1.0,1,345.0,848.0,1.0,547.0,1
878,878,-0.6326577258765478,-0.6,1,299.0,648.0,1.0,433.0,1
879,879,0.012611431503326997,0.0,0,406.0,580.0,0.0,904.0,1
880,880,0.5711308584505697,0.6,0,253.0,827.0,0.0,1320.0,1
881,881,-0.5571210965019162,-0.6,1,335.0,583.0,1.0,1802.0,1
882,882,0.7885798495872105,0.8,0,407.0,551.0,0.0,1022.0,1
883,883,-0.1747178820151647,-0.2,1,319.0,765.0,0.0,636.0,0
884,884,0.43940987154694566,0.4,0,390.0,723.0,0.0,457.0,1
885,885,0.9127014714006936,0.9,0,421.0,612.0,0.0,417.0,1
886,886,0.9461222924620063,0.9,0,273.0,583.0,0.0,454.0,1
887,887,0.201174728324099,0.2,0,495.0,904.0,0.0,551.0,1
888,888,-0.3170245267293068,-0.3,1,469.0,641.0,1.0,450.0,1
889,889,0.5626830568258403,0.6,0,254.0,866.0,0.0,1010.0,1
890,890,-0.39607268575590426,-0.4,1,436.0,507.0,1.0,267.0,1
891,891,0.7717226384760798,0.8,0,453.0,597.0,0.0,550.0,1
892,892,-0.9994350034917316,-1.0,1,475.0,962.0,1.0,333.0,1
893,893,-0.5184217093536545,-0.5,1,408.0,748.0,1.0,394.0,1
894,894,0.11175181824987868,0.1,0,433.0,658.0,1.0,2669.0,0
895,895,-0.053339707053623675,-0.1,1,390.0,925.0,0.0,665.0,0
896,896,-0.42799620884870415,-0.4,1,486.0,735.0,0.0,599.0,0
897,897,-0.7389118272291797,-0.7,1,285.0,975.0,1.0,230.0,1
898,898,0.9408192961352424,0.9,0,350.0,700.0,0.0,1240.0,1
899,899,-0.718001759266258,-0.7,1,461.0,746.0,1.0,403.0,1
900,900,-0.7074856488783876,-0.7,1,261.0,550.0,1.0,239.0,1
901,901,-0.08348325812931878,-0.1,1,315.0,607.0,1.0,278.0,1
902,902,0.2933428189149292,0.3,0,488.0,926.0,0.0,146.0,1
903,903,-0.793331629193359,-0.8,1,381.0,935.0,1.0,154.0,1
904,904,-0.6503228699822761,-0.7,1,310.0,669.0,1.0,241.0,1
905,905,-0.6043894287367169,-0.6,1,270.0,861.0,1.0,209.0,1
906,906,0.596895773563981,0.6,0,345.0,645.0,0.0,570.0,1
907,907,0.034823326049193914,0.0,0,353.0,778.0,1.0,939.0,0
908,908,0.21977030757589966,0.2,0,322.0,635.0,0.0,1273.0,1
909,909,0.9198327875855863,0.9,0,342.0,869.0,0.0,419.0,1
910,910,-0.6105798038734616,-0.6,1,330.0,899.0,1.0,791.0,1
911,911,0.46131251284662667,0.5,0,469.0,772.0,0.0,409.0,1
912,912,0.8292219179714957,0.8,0,467.0,902.0,0.0,641.0,1
913,913,0.23116287758731802,0.2,0,412.0,729.0,0.0,1049.0,1
914,914,0.7180187499891353,0.7,0,395.0,621.0,0.0,974.0,1
915,915,0.8219875461304493,0.8,0,408.0,890.0,0.0,282.0,1
916,916,0.911237017569404,0.9,0,303.0,592.0,0.0,365.0,1
917,917,0.09099043319490985,0.1,0,356.0,565.0,1.0,249.0,0
918,918,0.9977433331258863,1.0,0,295.0,961.0,0.0,354.0,1
919,919,-0.15866047397719774,-0.2,1,319.0,743.0,1.0,258.0,1
920,920,0.3290233068949129,0.3,0,346.0,634.0,1.0,470.0,0
921,921,-0.9349457340498231,-0.9,1,341.0,928.0,1.0,281.0,1
922,922,-0.4471338330530197,-0.4,1,407.0,739.0,1.0,584.0,1
923,923,-0.1273396107665954,-0.1,1,325.0,593.0,1.0,2972.0,1
924,924,-0.19309731557835552,-0.2,1,376.0,665.0,1.0,299.0,1
925,925,-0.688426057988029,-0.7,1,320.0,982.0,1.0,318.0,1
926,926,-0.4940210059235608,-0.5,1,373.0,656.0,1.0,681.0,1
927,927,-0.7094893126896902,-0.7,1,365.0,845.0,1.0,540.0,1
928,928,0.23073046861285684,0.2,0,415.0,950.0,1.0,1385.0,0
929,929,0.07703441373164188,0.1,0,343.0,676.0,0.0,791.0,1
930,930,-0.24798568380797192,-0.2,1,406.0,564.0,1.0,1620.0,1
931,931,0.22789322446436522,0.2,0,450.0,646.0,0.0,214.0,1
932,932,0.7597108363419474,0.8,0,292.0,838.0,0.0,280.0,1
933,933,-0.8050990973403844,-0.8,1,426.0,823.0,1.0,631.0,1
934,934,0.08071573021365541,0.1,0,428.0,667.0,1.0,205.0,0
935,935,0.951884799194433,1.0,0,292.0,504.0,0.0,624.0,1
936,936,-0.6099264597529712,-0.6,1,486.0,538.0,1.0,246.0,1
937,937,0.39506019425194117,0.4,0,369.0,910.0,0.0,761.0,1
938,938,0.6932472371365728,0.7,0,385.0,607.0,0.0,678.0,1
939,939,-0.32370232680735467,-0.3,1,308.0,724.0,1.0,228.0,1
940,940,0.370463319118703,0.4,0,430.0,642.0,0.0,358.0,1
941,941,0.6925760682966826,0.7,0,429.0,665.0,0.0,626.0,1
942,942,0.5751937765449968,0.6,0,417.0,841.0,0.0,692.0,1
943,943,-0.5843669892976657,-0.6,1,324.0,719.0,1.0,127.0,1
944,944,-0.6958324684837469,-0.7,1,363.0,847.0,1.0,290.0,1
945,945,0.21701784424411352,0.2,0,461.0,905.0,1.0,244.0,0
946,946,0.8222777486810118,0.8,0,482.0,718.0,0.0,210.0,1
947,947,0.8981323903493899,0.9,0,261.0,621.0,0.0,168.0,1
948,948,-0.7052041413681118,-0.7,1,277.0,743.0,1.0,370.0,1
949,949,-0.09205198258867986,-0.1,1,378.0,676.0,0.0,276.0,0
950,950,-0.27035667307630673,-0.3,1,468.0,967.0,1.0,625.0,1
951,951,0.7512699206687163,0.8,0,314.0,686.0,0.0,950.0,1
952,952,0.84331980124033,0.8,0,457.0,855.0,0.0,348.0,1
953,953,-0.1505130564698942,-0.2,1,469.0,664.0,1.0,587.0,1
954,954,0.971817066364697,1.0,0,384.0,714.0,0.0,732.0,1
955,955,0.6004812440152569,0.6,0,421.0,667.0,0.0,232.0,1
956,956,0.038894717583370264,0.0,0,341.0,816.0,1.0,403.0,0
957,957,0.6457151296627615,0.6,0,377.0,938.0,0.0,625.0,1
958,958,0.1294405296870249,0.1,0,448.0,878.0,1.0,1094.0,0
959,959,-0.005833479753059034,-0.0,1,426.0,540.0,1.0,744.0,1
960,960,-0.004036562888344308,-0.0,1,352.0,825.0,1.0,313.0,1
961,961,0.9882759927708094,1.0,0,394.0,583.0,0.0,433.0,1
962,962,-0.8304232197804231,-0.8,1,292.0,720.0,1.0,208.0,1
963,963,0.08446935161783187,0.1,0,426.0,838.0,0.0,1926.0,1
964,964,0.39350628427098333,0.4,0,483.0,743.0,0.0,404.0,1
965,965,-0.7756064298030891,-0.8,1,309.0,939.0,1.0,212.0,1
966,966,-0.22679330884040483,-0.2,1,363.0,694.0,1.0,253.0,1
967,967,0.7745664693144849,0.8,0,493.0,688.0,0.0,249.0,1
968,968,0.07464300950504188,0.1,0,398.0,583.0,1.0,1009.0,0
969,969,0.557117223873246,0.6,0,351.0,508.0,0.0,841.0,1
970,970,-0.8375664080460066,-0.8,1,379.0,653.0,1.0,638.0,1
971,971,-0.5607032249418287,-0.6,1,456.0,569.0,1.0,845.0,1
972,972,0.105380550891774,0.1,0,412.0,733.0,0.0,975.0,1
973,973,0.9310248233659302,0.9,0,280.0,709.0,0.0,541.0,1
974,974,0.9555353350399449,1.0,0,349.0,911.0,0.0,520.0,1
975,975,0.5566315270074931,0.6,0,488.0,537.0,0.0,135.0,1
976,976,0.6703946311374611,0.7,0,450.0,897.0,0.0,523.0,1
977,977,-0.9769619592454222,-1.0,1,490.0,509.0,1.0,261.0,1
978,978,0.7829459389855726,0.8,0,400.0,600.0,0.0,410.0,1
979,979,-0.9570061923799111,-1.0,1,283.0,770.0,1.0,277.0,1
980,980,-0.5489788266861364,-0.5,1,312.0,889.0,1.0,1289.0,1
981,981,-0.8047410780479178,-0.8,1,486.0,781.0,1.0,423.0,1
982,982,0.48019887138440076,0.5,0,479.0,993.0,0.0,248.0,1
983,983,-0.9294825974690555,-0.9,1,349.0,705.0,1.0,246.0,1
984,984,0.8186580151275242,0.8,0,432.0,911.0,0.0,377.0,1
985,985,0.589035625490016,0.6,0,288.0,573.0,0.0,1819.0,1
986,986,-0.6949961432626686,-0.7,1,392.0,988.0,1.0,240.0,1
987,987,0.8565738747150435,0.9,0,349.0,798.0,0.0,483.0,1
988,988,-0.46408402146364436,-0.5,1,325.0,684.0,1.0,2311.0,1
989,989,0.9455354384233021,0.9,0,282.0,570.0,0.0,288.0,1
990,990,0.8877944241203559,0.9,0,464.0,972.0,0.0,324.0,1
991,991,0.8128189311170744,0.8,0,440.0,857.0,0.0,263.0,1
992,992,0.33065467219858546,0.3,0,432.0,919.0,0.0,249.0,1
993,993,-0.2519043963759111,-0.3,1,481.0,724.0,1.0,455.0,1
994,994,-0.6574981054991251,-0.7,1,394.0,986.0,1.0,250.0,1
995,995,-0.7596958682009423,-0.8,1,403.0,913.0,1.0,164.0,1
996,996,-0.11991513868367765,-0.1,1,376.0,949.0,1.0,515.0,1
997,997,-0.7705353139250997,-0.8,1,395.0,666.0,1.0,399.0,1
998,998,-0.11474821013233893,-0.1,1,285.0,549.0,1.0,766.0,1
999,999,0.9709882039271895,1.0,0,374.0,610.0,0.0,326.0,1
1000,1000,-0.30426670535902955,-0.3,1,428.0,768.0,0.0,314.0,0
1001,1001,-0.7779646324550271,-0.8,1,466.0,784.0,1.0,540.0,1
1002,1002,-0.8160992295728005,-0.8,1,429.0,636.0,1.0,835.0,1
1003,1003,0.38941878655895845,0.4,0,380.0,762.0,0.0,258.0,1
1004,1004,-0.9581034276763942,-1.0,1,273.0,909.0,1.0,128.0,1
1005,1005,-0.37979244268293777,-0.4,1,251.0,968.0,0.0,161.0,0
1006,1006,-0.7438758859101653,-0.7,1,269.0,633.0,1.0,168.0,1
1007,1007,0.9608104921486251,1.0,0,425.0,808.0,0.0,277.0,1
1008,1008,-0.717878485239188,-0.7,1,497.0,693.0,1.0,130.0,1
1009,1009,0.13002346967364575,0.1,0,292.0,676.0,1.0,812.0,0
1010,1010,0.3881479833267014,0.4,0,340.0,972.0,0.0,1368.0,1
1011,1011,0.16142927328714207,0.2,0,299.0,944.0,1.0,267.0,0
1012,1012,0.39870749825107876,0.4,0,405.0,814.0,0.0,411.0,1
1013,1013,0.47500702482306445,0.5,0,291.0,559.0,0.0,740.0,1
1014,1014,0.5252484573082175,0.5,0,399.0,717.0,0.0,624.0,1
1015,1015,-0.4918484941085004,-0.5,1,296.0,723.0,1.0,421.0,1
1016,1016,-0.7400976750006454,-0.7,1,396.0,815.0,1.0,269.0,1
1017,1017,-0.26572104165702526,-0.3,1,439.0,516.0,1.0,275.0,1
1018,1018,-0.12667745142347986,-0.1,1,311.0,937.0,1.0,472.0,1
1019,1019,-0.7561709576128759,-0.8,1,285.0,664.0,1.0,221.0,1
1020,1020,-0.6853236211939755,-0.7,1,298.0,891.0,1.0,631.0,1
1021,1021,-0.255885949602507,-0.3,1,270.0,821.0,1.0,299.0,1
1022,1022,0.40617728768415917,0.4,0,372.0,936.0,0.0,652.0,1
1023,1023,0.8954398693880163,0.9,0,423.0,766.0,0.0,1251.0,1
1024,1024,-0.5012082595693597,-0.5,1,385.0,633.0,1.0,602.0,1
1025,1025,0.6286852992321712,0.6,0,333.0,584.0,0.0,183.0,1
1026,1026,-0.9454626165211677,-0.9,1,333.0,757.0,1.0,360.0,1
1027,1027,-0.4292573183547528,-0.4,1,434.0,889.0,1.0,197.0,1
1028,1028,-0.4706513568310522,-0.5,1,362.0,590.0,1.0,848.0,1
1029,1029,0.7940743255042684,0.8,0,451.0,574.0,0.0,875.0,1
1030,1030,-0.9552139388616403,-1.0,1,264.0,852.0,1.0,124.0,1
1031,1031,-0.14331794695980005,-0.1,1,444.0,999.0,1.0,617.0,1
1032,1032,0.16528842720849268,0.2,0,290.0,822.0,0.0,688.0,1
1033,1033,-0.9380755862768431,-0.9,1,442.0,793.0,1.0,185.0,1
1034,1034,0.264600295466892,0.3,0,376.0,538.0,0.0,1066.0,1
1035,1035,-0.6822476820943586,-0.7,1,400.0,565.0,1.0,465.0,1
1036,1036,-0.5296257144134442,-0.5,1,258.0,979.0,1.0,183.0,1
1037,1037,0.579178032013574,0.6,0,286.0,924.0,0.0,210.0,1
1038,1038,-0.12267791777802595,-0.1,1,350.0,922.0,0.0,848.0,0
1039,1039,-0.22385685308717918,-0.2,1,494.0,898.0,1.0,468.0,1
1040,1040,0.24459946699570723,0.2,0,366.0,730.0,0.0,294.0,1
1041,1041,0.828900562521772,0.8,0,278.0,599.0,0.0,363.0,1
1042,1042,0.3339087101112226,0.3,0,305.0,717.0,0.0,338.0,1
1043,1043,0.581059332600639,0.6,0,260.0,548.0,1.0,472.0,0
1044,1044,-0.8378195509186233,-0.8,1,272.0,907.0,1.0,181.0,1
1045,1045,-0.840472303627394,-0.8,1,342.0,740.0,1.0,218.0,1
1046,1046,0.28102201631733825,0.3,0,487.0,909.0,1.0,1044.0,0
1047,1047,0.10620118293602343,0.1,0,410.0,825.0,0.0,475.0,1
1048,1048,-0.07687164582747341,-0.1,1,440.0,716.0,1.0,804.0,1
1049,1049,-0.29404900190444416,-0.3,1,342.0,688.0,1.0,280.0,1
1050,1050,0.5557788144854412,0.6,0,490.0,522.0,0.0,448.0,1
1051,1051,0.49460827448072475,0.5,0,472.0,645.0,0.0,783.0,1
1052,1052,0.2772273789800994,0.3,0,259.0,816.0,0.0,745.0,1
1053,1053,0.300208279885287,0.3,0,323.0,608.0,1.0,909.0,0
1054,1054,-0.8076820567946359,-0.8,1,379.0,970.0,1.0,921.0,1
1055,1055,-0.285703000619441,-0.3,1,331.0,926.0,1.0,743.0,1
1056,1056,0.8110317345729352,0.8,0,262.0,753.0,0.0,1805.0,1
1057,1057,0.9301025230282021,0.9,0,324.0,759.0,0.0,217.0,1
1058,1058,0.11442444242381322,0.1,0,493.0,662.0,0.0,1245.0,1
1059,1059,-0.058100215965429136,-0.1,1,367.0,990.0,1.0,913.0,1
1060,1060,-0.352864063495095,-0.4,1,275.0,601.0,1.0,434.0,1
1061,1061,0.9060812365484063,0.9,0,296.0,577.0,0.0,1027.0,1
1062,1062,0.7077137733306438,0.7,0,465.0,967.0,0.0,958.0,1
1063,1063,-0.8709182016709502,-0.9,1,254.0,884.0,1.0,262.0,1
1064,1064,0.39100650848654395,0.4,0,458.0,855.0,0.0,517.0,1
1065,1065,-0.6788832844259423,-0.7,1,352.0,942.0,1.0,376.0,1
1066,1066,0.6448247199777921,0.6,0,417.0,972.0,0.0,131.0,1
1067,1067,0.37781765608408624,0.4,0,253.0,587.0,0.0,560.0,1
1068,1068,0.6057679166809073,0.6,0,329.0,646.0,0.0,885.0,1
1069,1069,-0.9173016462636463,-0.9,1,315.0,783.0,1.0,272.0,1
1070,1070,-0.7370077406830959,-0.7,1,451.0,554.0,1.0,445.0,1
1071,1071,0.6246468093576971,0.6,0,414.0,629.0,0.0,327.0,1
1072,1072,-0.7387797352772816,-0.7,1,301.0,655.0,1.0,224.0,1
1073,1073,0.12095453430304204,0.1,0,360.0,843.0,1.0,497.0,0
1074,1074,0.1442592326005787,0.1,0,340.0,813.0,0.0,217.0,1
1075,1075,-0.8877206453016817,-0.9,1,271.0,814.0,1.0,225.0,1
1076,1076,0.10374973282501432,0.1,0,472.0,523.0,1.0,145.0,0
1077,1077,-0.7188270347236951,-0.7,1,410.0,999.0,1.0,181.0,1
1078,1078,-0.7893822238867985,-0.8,1,334.0,595.0,1.0,331.0,1
1079,1079,-0.9125703975402952,-0.9,1,343.0,795.0,1.0,132.0,1
1080,1080,-0.05980060375649621,-0.1,1,487.0,732.0,1.0,171.0,1
1081,1081,-0.9100505368840752,-0.9,1,374.0,623.0,1.0,563.0,1
1082,1082,0.6376431928847892,0.6,0,475.0,792.0,0.0,433.0,1
1083,1083,-0.4488365132963468,-0.4,1,260.0,908.0,1.0,112.0,1
1084,1084,-0.39051347474834675,-0.4,1,487.0,668.0,1.0,305.0,1
1085,1085,0.4508552664194714,0.5,0,431.0,901.0,0.0,628.0,1
1086,1086,-0.3827752173491994,-0.4,1,373.0,584.0,1.0,93.0,1
1087,1087,0.5715239992062657,0.6,0,394.0,939.0,0.0,437.0,1
1088,1088,-0.3018326836925034,-0.3,1,442.0,768.0,1.0,420.0,1
1089,1089,0.2976003011993169,0.3,0,351.0,653.0,0.0,1476.0,1
1090,1090,0.11410742515111916,0.1,0,257.0,533.0,1.0,280.0,0
1091,1091,-0.7598122640395262,-0.8,1,472.0,721.0,1.0,487.0,1
1092,1092,-0.33081635991401903,-0.3,1,281.0,609.0,1.0,270.0,1
1093,1093,0.02683148020264836,0.0,0,428.0,760.0,0.0,1202.0,1
1094,1094,-0.06375416088554653,-0.1,1,343.0,671.0,0.0,426.0,0
1095,1095,-0.662299898430232,-0.7,1,254.0,934.0,1.0,382.0,1
1096,1096,-0.9339425003193018,-0.9,1,495.0,753.0,1.0,182.0,1
1097,1097,0.823966422841409,0.8,0,320.0,531.0,0.0,459.0,1
1098,1098,-0.7122160643731663,-0.7,1,476.0,588.0,1.0,96.0,1
1099,1099,-0.18924779609997078,-0.2,1,281.0,777.0,1.0,602.0,1
1100,1100,0.288362021079938,0.3,0,332.0,734.0,0.0,974.0,1
1101,1101,0.41247994509686525,0.4,0,484.0,525.0,0.0,751.0,1
1102,1102,-0.9706081278914951,-1.0,1,490.0,589.0,1.0,141.0,1
1103,1103,-0.8013746469339289,-0.8,1,387.0,607.0,1.0,386.0,1
1104,1104,-0.12308182719689498,-0.1,1,436.0,791.0,1.0,423.0,1
1105,1105,-0.046098527772238995,-0.0,1,425.0,905.0,1.0,1410.0,1
1106,1106,-0.9258505117570401,-0.9,1,401.0,940.0,1.0,399.0,1
1107,1107,-0.791157784933233,-0.8,1,461.0,529.0,1.0,200.0,1
1108,1108,-0.7995579458133679,-0.8,1,337.0,971.0,1.0,212.0,1
1109,1109,-0.0027365851263629892,-0.0,1,490.0,944.0,0.0,776.0,0
1110,1110,0.8520582930125635,0.9,0,454.0,561.0,0.0,265.0,1
1111,1111,-0.4202353556287286,-0.4,1,280.0,974.0,1.0,656.0,1
1112,1112,0.6382813379113854,0.6,0,273.0,895.0,0.0,162.0,1
1113,1113,-0.9034969949571325,-0.9,1,272.0,859.0,1.0,539.0,1
1114,1114,0.5121017619771904,0.5,0,494.0,597.0,0.0,249.0,1
1115,1115,0.8922620904462195,0.9,0,380.0,755.0,0.0,285.0,1
1116,1116,-0.29900209051454807,-0.3,1,341.0,509.0,1.0,470.0,1
1117,1117,-0.2751975560650479,-0.3,1,391.0,878.0,1.0,241.0,1
1118,1118,0.05797881833791618,0.1,0,322.0,829.0,0.0,319.0,1
1119,1119,-0.3994021090484947,-0.4,1,298.0,502.0,1.0,470.0,1
1120,1120,0.5524856274269974,0.6,0,255.0,515.0,0.0,230.0,1
1121,1121,-0.5764079823204189,-0.6,1,286.0,516.0,1.0,1178.0,1
1122,1122,-0.20429303644870567,-0.2,1,354.0,542.0,1.0,764.0,1
1123,1123,0.5565623081950386,0.6,0,345.0,558.0,0.0,907.0,1
1124,1124,0.825152585313069,0.8,0,457.0,920.0,0.0,343.0,1
1125,1125,-0.2454264377412323,-0.2,1,466.0,955.0,1.0,459.0,1
1126,1126,-0.12865061789555265,-0.1,1,462.0,729.0,1.0,329.0,1
1127,1127,-0.020060646781390412,-0.0,1,362.0,660.0,1.0,698.0,1
1128,1128,0.9559515430095358,1.0,0,417.0,524.0,0.0,449.0,1
1129,1129,0.03310765946324268,0.0,0,293.0,861.0,0.0,806.0,1
1130,1130,-0.7949862178728568,-0.8,1,251.0,588.0,1.0,231.0,1
1131,1131,0.4518093830805754,0.5,0,481.0,581.0,1.0,448.0,0
1132,1132,-0.30851921111269887,-0.3,1,267.0,630.0,1.0,433.0,1
1133,1133,-0.11451307711718806,-0.1,1,458.0,609.0,1.0,563.0,1
1134,1134,-0.18162636360573559,-0.2,1,398.0,878.0,1.0,274.0,1
1135,1135,-0.03996627684330223,-0.0,1,380.0,624.0,1.0,666.0,1
1136,1136,-0.7597822381342536,-0.8,1,408.0,956.0,1.0,706.0,1
1137,1137,0.40139121153060753,0.4,0,436.0,890.0,0.0,804.0,1
1138,1138,-0.04176719407400231,-0.0,1,387.0,506.0,1.0,1067.0,1
1139,1139,-0.17722522920682926,-0.2,1,403.0,824.0,1.0,553.0,1
1140,1140,0.015032575361549227,0.0,0,354.0,548.0,1.0,838.0,0
1141,1141,-0.4911231355720458,-0.5,1,270.0,701.0,1.0,419.0,1
1142,1142,-0.9160723375784303,-0.9,1,461.0,964.0,1.0,635.0,1
1143,1143,-0.09115260662913038,-0.1,1,294.0,738.0,1.0,308.0,1
1144,1144,-0.9151258825445756,-0.9,1,289.0,990.0,1.0,201.0,1
1145,1145,0.6331179327106946,0.6,0,355.0,743.0,0.0,872.0,1
1146,1146,0.7043347824528934,0.7,0,408.0,915.0,0.0,547.0,1
1147,1147,0.23752177860488732,0.2,0,463.0,821.0,0.0,936.0,1
1148,1148,0.11664806099187874,0.1,0,413.0,750.0,1.0,2277.0,0
1149,1149,-0.4215386136954373,-0.4,1,458.0,657.0,1.0,205.0,1
1150,1150,0.7720355185542309,0.8,0,444.0,643.0,0.0,553.0,1
1151,1151,0.32950412346521096,0.3,0,345.0,537.0,0.0,248.0,1
1152,1152,0.7322857868477792,0.7,0,280.0,544.0,0.0,256.0,1
1153,1153,0.6340333464198693,0.6,0,369.0,832.0,0.0,1139.0,1
1154,1154,-0.3385848948613066,-0.3,1,437.0,833.0,1.0,280.0,1
1155,1155,-0.9245094858515679,-0.9,1,290.0,867.0,1.0,243.0,1
1156,1156,-0.11961355764876891,-0.1,1,253.0,548.0,1.0,459.0,1
1157,1157,-0.07617274855141942,-0.1,1,442.0,814.0,1.0,1454.0,1
1158,1158,0.1444839493061063,0.1,0,252.0,700.0,1.0,1128.0,0
1159,1159,0.8729625626374327,0.9,0,438.0,730.0,0.0,522.0,1
1160,1160,0.19249803092557594,0.2,0,418.0,860.0,1.0,162.0,0
1161,1161,-0.8028090610240266,-0.8,1,429.0,917.0,1.0,944.0,1
1162,1162,0.01757119450959599,0.0,0,332.0,520.0,0.0,1428.0,1
1163,1163,0.4953981694151839,0.5,0,337.0,977.0,0.0,636.0,1
1164,1164,0.49474871806230314,0.5,0,300.0,876.0,0.0,594.0,1
1165,1165,-0.7951296606365588,-0.8,1,322.0,640.0,0.0,338.0,0
1166,1166,-0.8203191475491276,-0.8,1,462.0,517.0,1.0,311.0,1
1167,1167,0.6215634278490645,0.6,0,491.0,899.0,1.0,140.0,0
1168,1168,-0.7887251316620392,-0.8,1,484.0,931.0,1.0,175.0,1
1169,1169,-0.4236278460121343,-0.4,1,329.0,983.0,1.0,188.0,1
1170,1170,0.6188831013553355,0.6,0,422.0,632.0,0.0,836.0,1
1171,1171,0.69120661349546,0.7,0,433.0,633.0,1.0,204.0,0
1172,1172,-0.6417552743078174,-0.6,1,279.0,956.0,1.0,525.0,1
1173,1173,0.30625553100812564,0.3,0,403.0,851.0,1.0,356.0,0
1174,1174,0.1978749470041714,0.2,0,477.0,787.0,0.0,746.0,1
1175,1175,-0.23103619135879794,-0.2,1,353.0,767.0,1.0,180.0,1
1176,1176,0.3971757056509764,0.4,0,437.0,938.0,1.0,265.0,0
1177,1177,0.41164567373207306,0.4,0,493.0,830.0,0.0,317.0,1
1178,1178,-0.5036917769011624,-0.5,1,340.0,745.0,1.0,195.0,1
1179,1179,-0.2498949407372717,-0.2,1,459.0,584.0,1.0,1437.0,1
1180,1180,-0.7709567636040822,-0.8,1,497.0,902.0,1.0,611.0,1
1181,1181,0.3407136316283781,0.3,0,457.0,887.0,0.0,506.0,1
1182,1182,-0.9318418883218007,-0.9,1,357.0,665.0,1.0,278.0,1
1183,1183,0.8853307298211766,0.9,0,463.0,827.0,0.0,370.0,1
1184,1184,0.6547658227353161,0.7,0,333.0,513.0,0.0,554.0,1
1185,1185,0.27818543655305517,0.3,0,380.0,829.0,1.0,181.0,0
1186,1186,-0.8548356353150413,-0.9,1,292.0,739.0,1.0,249.0,1
1187,1187,0.09759470879358667,0.1,0,353.0,909.0,1.0,878.0,0
1188,1188,0.4576380871267647,0.5,0,315.0,698.0,0.0,1677.0,1
1189,1189,0.06537558488258277,0.1,0,438.0,580.0,1.0,382.0,0
1190,1190,0.2647524908596661,0.3,0,395.0,695.0,1.0,410.0,0
1191,1191,-0.709494134959616,-0.7,1,330.0,908.0,1.0,542.0,1
1192,1192,0.33359088630356437,0.3,0,447.0,852.0,0.0,711.0,1
1193,1193,-0.8576487240749318,-0.9,1,489.0,876.0,1.0,175.0,1
1194,1194,-0.5490567807196356,-0.5,1,491.0,858.0,1.0,231.0,1
1195,1195,-0.651940472638131,-0.7,1,490.0,628.0,1.0,322.0,1
1196,1196,-0.1760559460601392,-0.2,1,414.0,797.0,1.0,479.0,1
1197,1197,0.14053920089241734,0.1,0,420.0,977.0,1.0,1003.0,0
1198,1198,0.4402176901560839,0.4,0,456.0,877.0,0.0,927.0,1
1199,1199,-0.25490684642542494,-0.3,1,476.0,856.0,1.0,128.0,1
1200,1200,0.9188029081091686,0.9,0,473.0,957.0,0.0,510.0,1
1201,1201,-0.13025745830555202,-0.1,1,276.0,749.0,1.0,125.0,1
1202,1202,-0.6349912831164459,-0.6,1,350.0,522.0,1.0,1008.0,1
1203,1203,-0.6471099169992209,-0.6,1,471.0,788.0,1.0,131.0,1
1204,1204,-0.37629419893351046,-0.4,1,299.0,959.0,1.0,842.0,1
1205,1205,-0.2103157059245686,-0.2,1,482.0,806.0,1.0,292.0,1
1206,1206,-0.24701457052072473,-0.2,1,250.0,946.0,1.0,1434.0,1
1207,1207,-0.6481629921254277,-0.6,1,420.0,762.0,1.0,178.0,1
1208,1208,0.6010494675392117,0.6,0,435.0,955.0,0.0,600.0,1
1209,1209,0.2708863533877641,0.3,0,322.0,988.0,0.0,590.0,1
1210,1210,0.85739616944514,0.9,0,497.0,902.0,0.0,381.0,1
1211,1211,0.918683272561813,0.9,0,323.0,552.0,0.0,505.0,1
1212,1212,0.7958022494629706,0.8,0,412.0,929.0,0.0,229.0,1
1213,1213,-0.40457280249723415,-0.4,1,251.0,690.0,1.0,279.0,1
1214,1214,0.7994022644382865,0.8,0,459.0,853.0,0.0,728.0,1
1215,1215,-0.8526817030822915,-0.9,1,260.0,842.0,1.0,228.0,1
1216,1216,-0.5399957895673613,-0.5,1,260.0,575.0,1.0,385.0,1
1217,1217,0.48255384674264,0.5,0,413.0,789.0,0.0,638.0,1
1218,1218,0.1573753455401159,0.2,0,434.0,730.0,1.0,2246.0,0
1219,1219,0.4146529453217276,0.4,0,434.0,977.0,1.0,539.0,0
1220,1220,0.5210843905519371,0.5,0,283.0,988.0,0.0,2219.0,1
1221,1221,0.11782453547796057,0.1,0,440.0,551.0,0.0,449.0,1
1222,1222,0.11604384700395665,0.1,0,297.0,529.0,0.0,234.0,1
1223,1223,0.4584776011817633,0.5,0,317.0,558.0,0.0,545.0,1
1224,1224,0.7886212997647764,0.8,0,371.0,938.0,0.0,271.0,1
1225,1225,-0.7058026295655015,-0.7,1,291.0,623.0,1.0,546.0,1
1226,1226,-0.4849295377993381,-0.5,1,250.0,781.0,1.0,549.0,1
1227,1227,0.14329362306906668,0.1,0,499.0,719.0,1.0,352.0,0
1228,1228,-0.7148396986844601,-0.7,1,444.0,782.0,1.0,1144.0,1
1229,1229,0.2625937638943898,0.3,0,302.0,584.0,0.0,334.0,1
1230,1230,-0.4524016177199328,-0.5,1,348.0,763.0,1.0,129.0,1
1231,1231,-0.4919711348867142,-0.5,1,307.0,547.0,1.0,456.0,1
1232,1232,-0.9162246714179003,-0.9,1,403.0,624.0,1.0,113.0,1
1233,1233,0.755617367362581,0.8,0,358.0,620.0,0.0,412.0,1
1234,1234,-0.7629388350426363,-0.8,1,341.0,822.0,1.0,287.0,1
1235,1235,-0.5743204832223827,-0.6,1,431.0,830.0,1.0,429.0,1
1236,1236,0.39748790023711633,0.4,0,450.0,807.0,0.0,323.0,1
1237,1237,0.14497536400368216,0.1,0,409.0,724.0,0.0,437.0,1
1238,1238,-0.846948431563449,-0.8,1,292.0,819.0,1.0,149.0,1
1239,1239,-0.9010125606677015,-0.9,1,423.0,531.0,1.0,316.0,1
1240,1240,-0.8802140891331922,-0.9,1,251.0,546.0,1.0,433.0,1
1241,1241,-0.743306916641677,-0.7,1,482.0,534.0,1.0,1144.0,1
1242,1242,0.009879301931508877,0.0,0,360.0,710.0,1.0,520.0,0
1243,1243,-0.7593983895685787,-0.8,1,482.0,831.0,1.0,387.0,1
1244,1244,0.9293268817191291,0.9,0,407.0,906.0,0.0,267.0,1
1245,1245,-0.8228185249677762,-0.8,1,337.0,755.0,1.0,488.0,1
1246,1246,-0.10527081817031547,-0.1,1,284.0,740.0,0.0,536.0,0
1247,1247,-0.9557583888900576,-1.0,1,314.0,800.0,1.0,176.0,1
1248,1248,-0.635949468395107,-0.6,1,433.0,800.0,1.0,477.0,1
1249,1249,0.7388684259667475,0.7,0,464.0,530.0,0.0,756.0,1
1250,1250,0.32057141615436047,0.3,0,427.0,853.0,0.0,130.0,1
1251,1251,-0.4863679061827588,-0.5,1,251.0,675.0,1.0,674.0,1
1252,1252,0.06974074785723228,0.1,0,416.0,828.0,1.0,1006.0,0
1253,1253,-0.17551717232437247,-0.2,1,484.0,701.0,1.0,2535.0,1
1254,1254,-0.8682990671231632,-0.9,1,251.0,605.0,1.0,444.0,1
1255,1255,-0.11580128551403002,-0.1,1,440.0,915.0,1.0,445.0,1
1256,1256,-0.07595517952544406,-0.1,1,399.0,888.0,1.0,203.0,1
1257,1257,0.46805946046997193,0.5,0,350.0,541.0,0.0,1219.0,1
1258,1258,0.4789277321887102,0.5,0,439.0,535.0,0.0,886.0,1
1259,1259,-0.3788545677928863,-0.4,1,328.0,653.0,1.0,389.0,1
1260,1260,0.7134764089852021,0.7,0,359.0,523.0,0.0,518.0,1
1261,1261,0.9634827721350667,1.0,0,349.0,730.0,0.0,231.0,1
1262,1262,0.48351610999240324,0.5,0,480.0,784.0,0.0,236.0,1
1263,1263,0.030979089859795694,0.0,0,411.0,721.0,1.0,288.0,0
1264,1264,-0.8523060415700006,-0.9,1,477.0,703.0,1.0,230.0,1
1265,1265,-0.9386298914835474,-0.9,1,343.0,725.0,1.0,132.0,1
1266,1266,-0.49407496984368615,-0.5,1,455.0,952.0,1.0,253.0,1
1267,1267,0.8156762446099135,0.8,0,324.0,871.0,0.0,575.0,1
1268,1268,0.09890243678888666,0.1,0,305.0,666.0,0.0,699.0,1
1269,1269,-0.3283781030690187,-0.3,1,437.0,961.0,1.0,352.0,1
1270,1270,0.4618961781038817,0.5,0,255.0,765.0,0.0,320.0,1
1271,1271,-0.7033610122028473,-0.7,1,289.0,594.0,1.0,877.0,1
1272,1272,0.9570544135119905,1.0,0,485.0,655.0,0.0,560.0,1
1273,1273,-0.6366865148160437,-0.6,1,287.0,794.0,1.0,319.0,1
1274,1274,0.6735098374656254,0.7,0,481.0,515.0,0.0,164.0,1
1275,1275,0.2624657871097744,0.3,0,457.0,927.0,1.0,316.0,0
1276,1276,-0.03298244841619602,-0.0,1,445.0,888.0,0.0,627.0,0
1277,1277,-0.22673415258147034,-0.2,1,319.0,892.0,1.0,3789.0,1
1278,1278,-0.16317267325690876,-0.2,1,432.0,728.0,1.0,600.0,1
1279,1279,0.7798995660400858,0.8,0,294.0,973.0,0.0,593.0,1
1280,1280,-0.4719766243407362,-0.5,1,365.0,911.0,0.0,694.0,0
1281,1281,0.7545668704916071,0.8,0,371.0,988.0,0.0,281.0,1
1282,1282,-0.663273533303655,-0.7,1,343.0,968.0,1.0,419.0,1
1283,1283,-0.5635964926242474,-0.6,1,463.0,975.0,1.0,192.0,1
1284,1284,-0.42943005888625696,-0.4,1,278.0,670.0,1.0,972.0,1
1285,1285,-0.19115400750935652,-0.2,1,489.0,502.0,1.0,639.0,1
1286,1286,-0.9831702586367632,-1.0,1,433.0,736.0,1.0,461.0,1
1287,1287,-0.0631886593899107,-0.1,1,337.0,563.0,0.0,600.0,0
1288,1288,0.4193039501013436,0.4,0,419.0,524.0,0.0,1067.0,1
1289,1289,0.7226880866625933,0.7,0,451.0,726.0,0.0,693.0,1
1290,1290,0.8084079490904907,0.8,0,403.0,891.0,0.0,436.0,1
1291,1291,-0.1854596365672918,-0.2,1,484.0,762.0,1.0,104.0,1
1292,1292,0.476937415006218,0.5,0,481.0,619.0,0.0,1230.0,1
1293,1293,0.2810644571752612,0.3,0,472.0,938.0,1.0,810.0,0
1294,1294,-0.87563412779153,-0.9,1,326.0,513.0,1.0,181.0,1
1295,1295,0.8119708773933445,0.8,0,332.0,833.0,0.0,775.0,1
1296,1296,-0.2725867546072458,-0.3,1,405.0,890.0,1.0,205.0,1
1297,1297,0.9044922739161527,0.9,0,387.0,564.0,1.0,229.0,0
1298,1298,-0.1370238482437114,-0.1,1,481.0,915.0,1.0,1684.0,1
1299,1299,0.29652933658036473,0.3,0,318.0,750.0,1.0,332.0,0
1300,1300,-0.7561772332353536,-0.8,1,485.0,515.0,1.0,260.0,1
1301,1301,0.9140454785977357,0.9,0,475.0,912.0,0.0,303.0,1
1302,1302,0.5776754642843251,0.6,0,358.0,956.0,0.0,326.0,1
1303,1303,0.1680145566975919,0.2,0,485.0,733.0,0.0,2052.0,1
1304,1304,-0.12078941456746062,-0.1,1,484.0,926.0,1.0,150.0,1
1305,1305,0.44220661286881,0.4,0,376.0,772.0,0.0,202.0,1
1306,1306,0.28071671944332866,0.3,0,414.0,759.0,0.0,387.0,1
1307,1307,-0.1876564443484685,-0.2,1,376.0,743.0,1.0,961.0,1
1308,1308,-0.7540646200888599,-0.8,1,345.0,888.0,1.0,187.0,1
1309,1309,-0.0805117939353377,-0.1,1,367.0,747.0,0.0,236.0,0
1310,1310,-0.9843900685229809,-1.0,1,381.0,818.0,1.0,201.0,1
1311,1311,0.9629657397362492,1.0,0,292.0,580.0,0.0,198.0,1
1312,1312,0.17750015642560002,0.2,0,334.0,759.0,0.0,1297.0,1
1313,1313,0.6042770594192899,0.6,0,453.0,834.0,0.0,923.0,1
1314,1314,0.8304414955447392,0.8,0,498.0,918.0,0.0,314.0,1
1315,1315,0.9529330907179583,1.0,0,437.0,596.0,0.0,147.0,1
1316,1316,0.5042437992773079,0.5,0,295.0,901.0,0.0,774.0,1
1317,1317,-0.4439502023830799,-0.4,1,262.0,780.0,1.0,668.0,1
1318,1318,0.305997393142561,0.3,0,288.0,699.0,1.0,1863.0,0
1319,1319,0.6823130506233366,0.7,0,309.0,663.0,0.0,718.0,1
1320,1320,-0.9869479766700537,-1.0,1,266.0,848.0,1.0,186.0,1
1321,1321,-0.006702891042907,-0.0,1,490.0,776.0,1.0,344.0,1
1322,1322,0.9908187277703469,1.0,0,480.0,822.0,0.0,328.0,1
1323,1323,0.8299342584883205,0.8,0,455.0,834.0,0.0,1151.0,1
1324,1324,0.44499454721292264,0.4,0,476.0,849.0,1.0,555.0,0
1325,1325,0.19148341201419483,0.2,0,329.0,867.0,0.0,994.0,1
1326,1326,-0.34874054164582335,-0.3,1,307.0,735.0,1.0,448.0,1
1327,1327,0.8576323113462183,0.9,0,359.0,803.0,0.0,208.0,1
1328,1328,0.3517540180990928,0.4,0,472.0,573.0,0.0,485.0,1
1329,1329,0.9914094913920684,1.0,0,434.0,755.0,0.0,191.0,1
1330,1330,0.7077857516498065,0.7,0,329.0,695.0,0.0,286.0,1
1331,1331,-0.28871592364306475,-0.3,1,427.0,860.0,1.0,833.0,1
1332,1332,-0.03897730189122495,-0.0,1,364.0,518.0,0.0,778.0,0
1333,1333,0.20855672372258383,0.2,0,258.0,798.0,1.0,334.0,0
1334,1334,0.58617925039652,0.6,0,466.0,787.0,0.0,637.0,1
1335,1335,-0.5458014650530341,-0.5,1,314.0,713.0,1.0,193.0,1
1336,1336,0.31523770599472245,0.3,0,469.0,911.0,1.0,1220.0,0
1337,1337,-0.40767049783478493,-0.4,1,337.0,827.0,1.0,336.0,1
1338,1338,-0.4953442325549158,-0.5,1,258.0,758.0,1.0,374.0,1
1339,1339,0.693503883496946,0.7,0,334.0,504.0,0.0,262.0,1
1340,1340,0.03753899099156932,0.0,0,265.0,833.0,0.0,522.0,1
1341,1341,0.4350974354361705,0.4,0,370.0,596.0,0.0,734.0,1
1342,1342,-0.37152795488827794,-0.4,1,488.0,735.0,1.0,247.0,1
1343,1343,-0.28031387903828175,-0.3,1,419.0,843.0,1.0,1558.0,1
1344,1344,0.5404272125829099,0.5,0,272.0,631.0,0.0,2407.0,1
1345,1345,-0.2769204807347905,-0.3,1,454.0,792.0,1.0,1044.0,1
1346,1346,0.6773926220549775,0.7,0,270.0,905.0,0.0,515.0,1
1347,1347,0.20384480813577133,0.2,0,420.0,595.0,0.0,165.0,1
1348,1348,0.4498866631256244,0.4,0,403.0,727.0,1.0,370.0,0
1349,1349,-0.972388811174993,-1.0,1,348.0,501.0,1.0,271.0,1
1350,1350,-0.18089775547462672,-0.2,1,489.0,734.0,1.0,1197.0,1
1351,1351,-0.14753258077548703,-0.1,1,365.0,852.0,1.0,743.0,1
1352,1352,0.7957081809344189,0.8,0,371.0,800.0,0.0,199.0,1
1353,1353,-0.01555473195540169,-0.0,1,378.0,785.0,1.0,407.0,1
1354,1354,0.3411439020052549,0.3,0,436.0,621.0,0.0,993.0,1
1355,1355,-0.36094666385867114,-0.4,1,334.0,588.0,1.0,228.0,1
1356,1356,0.3066180622845014,0.3,0,373.0,542.0,0.0,375.0,1
1357,1357,-0.7643120447128204,-0.8,1,403.0,803.0,1.0,344.0,1
1358,1358,0.2309339891971398,0.2,0,316.0,775.0,0.0,189.0,1
1359,1359,0.19155244356518986,0.2,0,412.0,938.0,1.0,1470.0,0
1360,1360,-0.7124500522338739,-0.7,1,315.0,752.0,1.0,213.0,1
1361,1361,0.8002605346551639,0.8,0,282.0,974.0,0.0,324.0,1
1362,1362,-0.9243686866736864,-0.9,1,265.0,848.0,1.0,167.0,1
1363,1363,-0.040223073961574096,-0.0,1,326.0,771.0,1.0,1253.0,1
1364,1364,-0.3133542061435226,-0.3,1,387.0,871.0,1.0,392.0,1
1365,1365,0.009014513802071855,0.0,0,252.0,677.0,0.0,951.0,1
1366,1366,-0.0022550610654219483,-0.0,1,419.0,991.0,1.0,260.0,1
1367,1367,-0.16976762435310677,-0.2,1,473.0,752.0,1.0,2075.0,1
1368,1368,0.12178393651777486,0.1,0,326.0,568.0,1.0,946.0,0
1369,1369,-0.7721631327779332,-0.8,1,265.0,648.0,1.0,567.0,1
1370,1370,0.8503845138965425,0.9,0,464.0,815.0,0.0,311.0,1
1371,1371,0.8218080936285335,0.8,0,496.0,698.0,0.0,306.0,1
1372,1372,-0.10784463800257815,-0.1,1,475.0,825.0,1.0,240.0,1
1373,1373,0.26654259181909734,0.3,0,496.0,645.0,0.0,869.0,1
1374,1374,0.4220463635923395,0.4,0,271.0,686.0,1.0,793.0,0
1375,1375,0.3259852306837763,0.3,0,442.0,776.0,1.0,662.0,0
1376,1376,-0.6156846720613931,-0.6,1,451.0,937.0,1.0,252.0,1
1377,1377,-0.054517213546824594,-0.1,1,450.0,593.0,1.0,217.0,1
1378,1378,0.48024644757890167,0.5,0,495.0,934.0,0.0,191.0,1
1379,1379,-0.8324651882330698,-0.8,1,368.0,627.0,1.0,305.0,1
1380,1380,0.5035878043419237,0.5,0,376.0,945.0,0.0,809.0,1
1381,1381,-0.0011895742975844836,-0.0,1,365.0,997.0,1.0,368.0,1
1382,1382,0.5341974600797865,0.5,0,277.0,919.0,0.0,264.0,1
1383,1383,0.41106196282845753,0.4,0,389.0,845.0,1.0,806.0,0
1384,1384,-0.15973504059380028,-0.2,1,440.0,993.0,1.0,617.0,1
1385,1385,0.08190870427102737,0.1,0,356.0,601.0,0.0,353.0,1
1386,1386,0.31540134117637697,0.3,0,440.0,738.0,1.0,112.0,0
1387,1387,-0.7861675331994071,-0.8,1,425.0,724.0,1.0,231.0,1
1388,1388,-0.5680626684546228,-0.6,1,312.0,508.0,1.0,190.0,1
1389,1389,-0.6756661029835593,-0.7,1,329.0,813.0,1.0,218.0,1
1390,1390,-0.2990704095726118,-0.3,1,482.0,961.0,1.0,227.0,1
1391,1391,0.5800750302279938,0.6,0,323.0,933.0,0.0,944.0,1
1392,1392,-0.9635852159274811,-1.0,1,307.0,566.0,1.0,127.0,1
1393,1393,0.572609308908566,0.6,0,475.0,805.0,1.0,890.0,0
1394,1394,0.2970286811912619,0.3,0,424.0,903.0,0.0,263.0,1
1395,1395,-0.6172576724046328,-0.6,1,304.0,840.0,1.0,736.0,1
1396,1396,0.5037427232755842,0.5,0,319.0,785.0,0.0,286.0,1
1397,1397,-0.24905347726767224,-0.2,1,290.0,893.0,1.0,467.0,1
1398,1398,-0.6839233826838027,-0.7,1,497.0,796.0,1.0,887.0,1
1399,1399,-0.8120703099934592,-0.8,1,395.0,994.0,1.0,151.0,1
1400,1400,0.15411527357352628,0.2,0,434.0,623.0,1.0,1043.0,0
1401,1401,-0.9143648453532871,-0.9,1,297.0,732.0,1.0,371.0,1
1402,1402,-0.016927376733196553,-0.0,1,469.0,604.0,1.0,817.0,1
1403,1403,-0.3816058646545277,-0.4,1,426.0,518.0,1.0,1216.0,1
1404,1404,-0.872898935256909,-0.9,1,497.0,940.0,1.0,193.0,1
1405,1405,-0.92017607200621,-0.9,1,395.0,530.0,1.0,745.0,1
1406,1406,-0.11693464006247423,-0.1,1,367.0,742.0,1.0,681.0,1
1407,1407,0.4127195454537682,0.4,0,335.0,507.0,0.0,178.0,1
1408,1408,0.7031081674315953,0.7,0,252.0,506.0,0.0,532.0,1
1409,1409,-0.6855506180554314,-0.7,1,441.0,854.0,1.0,225.0,1
1410,1410,0.7402964883645844,0.7,0,438.0,758.0,0.0,134.0,1
1411,1411,-0.30483662604646833,-0.3,1,437.0,808.0,1.0,1025.0,1
1412,1412,-0.31496798015917404,-0.3,1,439.0,742.0,1.0,139.0,1
1413,1413,0.8307097158354666,0.8,0,419.0,823.0,0.0,628.0,1
1414,1414,-0.20774152182240924,-0.2,1,461.0,840.0,1.0,349.0,1
1415,1415,-0.6818922594692518,-0.7,1,260.0,903.0,1.0,337.0,1
1416,1416,-0.899404884028455,-0.9,1,492.0,501.0,1.0,337.0,1
1417,1417,-0.246856527215346,-0.2,1,471.0,595.0,1.0,154.0,1
1418,1418,0.4440649671104109,0.4,0,443.0,561.0,0.0,386.0,1
1419,1419,-0.609510278355716,-0.6,1,302.0,970.0,1.0,858.0,1
1420,1420,-0.013647356133965394,-0.0,1,418.0,574.0,1.0,1218.0,1
1421,1421,0.16328483868421806,0.2,0,481.0,771.0,1.0,1108.0,0
1422,1422,-0.32621839000763386,-0.3,1,354.0,848.0,1.0,158.0,1
1423,1423,0.3033327352934849,0.3,0,349.0,968.0,0.0,1743.0,1
1424,1424,0.11933386844943716,0.1,0,276.0,661.0,0.0,293.0,1
1425,1425,-0.9368823316057588,-0.9,1,328.0,976.0,1.0,346.0,1
1426,1426,0.9564616438307374,1.0,0,341.0,505.0,0.0,284.0,1
1427,1427,0.7348312982102001,0.7,0,358.0,657.0,0.0,1585.0,1
1428,1428,0.3170248455416802,0.3,0,303.0,663.0,0.0,384.0,1
1429,1429,0.8885142010391867,0.9,0,463.0,594.0,0.0,423.0,1
1430,1430,0.6773243055739246,0.7,0,493.0,999.0,0.0,498.0,1
1431,1431,0.28263952827487326,0.3,0,403.0,593.0,0.0,344.0,1
1432,1432,-0.7792504233041444,-0.8,1,454.0,607.0,1.0,279.0,1
1433,1433,-0.8182353237175244,-0.8,1,285.0,924.0,1.0,281.0,1
1434,1434,0.27544875841799943,0.3,0,464.0,767.0,1.0,629.0,0
1435,1435,-0.11061264749777844,-0.1,1,409.0,765.0,1.0,386.0,1
1436,1436,0.4318376552592391,0.4,0,303.0,783.0,0.0,284.0,1
1437,1437,-0.13209192153504534,-0.1,1,337.0,824.0,0.0,519.0,0
1438,1438,-0.10388426484340174,-0.1,1,443.0,818.0,1.0,399.0,1
1439,1439,0.2170967594800759,0.2,0,304.0,903.0,0.0,253.0,1
1440,1440,0.07106855032333503,0.1,0,461.0,610.0,1.0,249.0,0
1441,1441,0.023834183194624492,0.0,0,337.0,722.0,1.0,171.0,0
1442,1442,0.9302901867982567,0.9,0,497.0,991.0,0.0,512.0,1
1443,1443,-0.7614731639064238,-0.8,1,297.0,901.0,1.0,82.0,1
1444,1444,-0.5786107127106532,-0.6,1,464.0,590.0,1.0,796.0,1
1445,1445,-0.20671208018611575,-0.2,1,467.0,949.0,1.0,274.0,1
1446,1446,0.3049407017553254,0.3,0,477.0,876.0,1.0,607.0,0
1447,1447,0.7759081597361148,0.8,0,303.0,584.0,0.0,1063.0,1
1448,1448,-0.5122202198795496,-0.5,1,382.0,727.0,1.0,461.0,1
1449,1449,0.4032228816502077,0.4,0,291.0,810.0,1.0,369.0,0
1450,1450,-0.47943571444794864,-0.5,1,487.0,521.0,1.0,472.0,1
1451,1451,-0.4822409900889011,-0.5,1,343.0,925.0,1.0,152.0,1
1452,1452,0.24193457117037398,0.2,0,397.0,819.0,0.0,934.0,1
1453,1453,-0.3615797452828995,-0.4,1,480.0,767.0,1.0,273.0,1
1454,1454,-0.1913199506600114,-0.2,1,475.0,738.0,1.0,1437.0,1
1455,1455,0.9508108567425766,1.0,0,418.0,640.0,0.0,642.0,1
1456,1456,-0.6286196340481953,-0.6,1,325.0,860.0,1.0,645.0,1
1457,1457,-0.9256614308298101,-0.9,1,448.0,994.0,1.0,238.0,1
1458,1458,0.6017241894161975,0.6,0,334.0,669.0,0.0,557.0,1
1459,1459,0.3755319914363964,0.4,0,438.0,715.0,1.0,417.0,0
1460,1460,0.9427124744597091,0.9,0,457.0,790.0,0.0,293.0,1
1461,1461,0.11093497271320762,0.1,0,461.0,584.0,1.0,625.0,0
1462,1462,-0.2740403890449188,-0.3,1,361.0,793.0,1.0,226.0,1
1463,1463,0.7384027440480458,0.7,0,401.0,523.0,0.0,316.0,1
1464,1464,0.36010072007816407,0.4,0,250.0,837.0,0.0,833.0,1
1465,1465,-0.7730157628966041,-0.8,1,354.0,588.0,1.0,368.0,1
1466,1466,0.10978625741458914,0.1,0,259.0,667.0,0.0,1064.0,1
1467,1467,-0.4042684832194514,-0.4,1,405.0,545.0,1.0,480.0,1
1468,1468,-0.7054009553659797,-0.7,1,448.0,812.0,1.0,480.0,1
1469,1469,0.17821973823263515,0.2,0,413.0,695.0,1.0,282.0,0
1470,1470,-0.5445585408508824,-0.5,1,447.0,871.0,1.0,992.0,1
1471,1471,-0.4079943691495356,-0.4,1,391.0,667.0,1.0,342.0,1
1472,1472,-0.6872578346253475,-0.7,1,281.0,597.0,1.0,272.0,1
1473,1473,-0.4202606156687321,-0.4,1,458.0,832.0,1.0,750.0,1
1474,1474,-0.641227688264935,-0.6,1,354.0,736.0,1.0,340.0,1
1475,1475,-0.682413734295636,-0.7,1,444.0,860.0,1.0,126.0,1
1476,1476,-0.3793749256163135,-0.4,1,331.0,593.0,1.0,346.0,1
1477,1477,-0.6770607224045648,-0.7,1,464.0,942.0,1.0,364.0,1
1478,1478,-0.9255816266135957,-0.9,1,364.0,575.0,1.0,951.0,1
1479,1479,0.4807254780312873,0.5,0,276.0,550.0,0.0,674.0,1
1480,1480,0.24265611037058288,0.2,0,454.0,643.0,1.0,1063.0,0
1481,1481,0.2039534069782285,0.2,0,449.0,647.0,0.0,3234.0,1
1482,1482,-0.4368652226661076,-0.4,1,442.0,696.0,1.0,182.0,1
1483,1483,-0.2137552212740783,-0.2,1,350.0,907.0,1.0,243.0,1
1484,1484,0.5177686616992838,0.5,0,492.0,695.0,0.0,1063.0,1
1485,1485,0.0400309971166013,0.0,0,369.0,543.0,1.0,628.0,0
1486,1486,0.7729367877087578,0.8,0,393.0,929.0,0.0,218.0,1
1487,1487,-0.38886311751669544,-0.4,1,411.0,776.0,1.0,343.0,1
1488,1488,-0.4048951839197028,-0.4,1,362.0,609.0,1.0,289.0,1
1489,1489,-0.7986195732979164,-0.8,1,255.0,643.0,1.0,202.0,1
1490,1490,-0.7264148808493487,-0.7,1,363.0,994.0,1.0,663.0,1
1491,1491,0.7075988943765537,0.7,0,431.0,793.0,0.0,856.0,1
1492,1492,0.2387235992042842,0.2,0,429.0,663.0,0.0,338.0,1
1493,1493,-0.6622803297865267,-0.7,1,369.0,814.0,1.0,157.0,1
1494,1494,-0.5963894729078447,-0.6,1,499.0,968.0,1.0,303.0,1
1495,1495,0.18602741624489827,0.2,0,313.0,591.0,0.0,1726.0,1
1496,1496,0.6636289397557287,0.7,0,319.0,840.0,0.0,281.0,1
1497,1497,0.5526347204366902,0.6,0,322.0,834.0,0.0,314.0,1
1498,1498,0.4645337342750844,0.5,0,277.0,838.0,0.0,135.0,1
1499,1499,-0.560819384795413,-0.6,1,284.0,987.0,1.0,239.0,1
1500,1500,0.8042696259021176,0.8,0,394.0,522.0,0.0,504.0,1
1501,1501,0.5972444917358961,0.6,0,405.0,793.0,0.0,732.0,1
1502,1502,-0.4227302201878227,-0.4,1,384.0,940.0,1.0,566.0,1
1503,1503,0.5172161070448613,0.5,0,286.0,672.0,0.0,432.0,1
1504,1504,0.6422353083190908,0.6,0,272.0,964.0,0.0,614.0,1
1505,1505,-0.15069356219821195,-0.2,1,327.0,938.0,1.0,1105.0,1
1506,1506,0.48617129716199625,0.5,0,375.0,957.0,1.0,658.0,0
1507,1507,-0.8894924020882815,-0.9,1,407.0,529.0,1.0,154.0,1
1508,1508,0.6267751380501576,0.6,0,447.0,981.0,0.0,982.0,1
1509,1509,0.4999434919861905,0.5,0,435.0,655.0,0.0,300.0,1
1510,1510,0.0935825181525094,0.1,0,397.0,585.0,1.0,448.0,0
1511,1511,0.42773272847703203,0.4,0,365.0,672.0,0.0,783.0,1
1512,1512,0.1635356948107356,0.2,0,359.0,779.0,0.0,982.0,1
1513,1513,0.6103893055950373,0.6,0,409.0,782.0,1.0,529.0,0
1514,1514,0.7447556530744326,0.7,0,336.0,731.0,0.0,413.0,1
1515,1515,-0.1569175830946119,-0.2,1,282.0,579.0,1.0,439.0,1
1516,1516,-0.19838982507923486,-0.2,1,340.0,875.0,1.0,265.0,1
1517,1517,0.7851745964270687,0.8,0,496.0,674.0,0.0,530.0,1
1518,1518,-0.29511725898556174,-0.3,1,450.0,514.0,1.0,166.0,1
1519,1519,-0.9862686271604872,-1.0,1,425.0,874.0,1.0,471.0,1
1520,1520,0.9349654126631799,0.9,0,492.0,678.0,0.0,370.0,1
1521,1521,0.2562955295060185,0.3,0,488.0,881.0,1.0,231.0,0
1522,1522,-0.4789551405622743,-0.5,1,392.0,859.0,0.0,539.0,0
1523,1523,0.04526564100199404,0.0,0,325.0,879.0,0.0,956.0,1
1524,1524,0.6796082506730408,0.7,0,390.0,894.0,0.0,276.0,1
1525,1525,0.10118325265345085,0.1,0,390.0,589.0,1.0,1441.0,0
1526,1526,0.5464795535248237,0.5,0,273.0,640.0,0.0,207.0,1
1527,1527,-0.27144798238747625,-0.3,1,423.0,599.0,1.0,488.0,1
1528,1528,-0.846268929414518,-0.8,1,385.0,897.0,1.0,68.0,1
1529,1529,-0.6456673922499323,-0.6,1,384.0,794.0,0.0,652.0,0
1530,1530,-0.6731995501572803,-0.7,1,290.0,950.0,1.0,350.0,1
1531,1531,-0.03508436156622263,-0.0,1,301.0,911.0,1.0,288.0,1
1532,1532,0.4029403999821284,0.4,0,362.0,956.0,0.0,572.0,1
1533,1533,-0.0945639325402643,-0.1,1,255.0,583.0,0.0,402.0,0
1534,1534,0.34617570345663196,0.3,0,323.0,953.0,1.0,324.0,0
1535,1535,-0.10284492756867047,-0.1,1,365.0,749.0,1.0,666.0,1
1536,1536,-0.17054809373299462,-0.2,1,335.0,817.0,0.0,488.0,0
1537,1537,0.8206839109060238,0.8,0,265.0,869.0,0.0,436.0,1
1538,1538,0.7804433938380189,0.8,0,280.0,777.0,0.0,423.0,1
1539,1539,-0.7813907882030584,-0.8,1,339.0,598.0,1.0,203.0,1
1540,1540,0.5534714017655822,0.6,0,336.0,880.0,1.0,274.0,0
1541,1541,0.027928728854099916,0.0,0,322.0,634.0,1.0,454.0,0
1542,1542,-0.17258615114218578,-0.2,1,453.0,874.0,1.0,443.0,1
1543,1543,0.5756667763198806,0.6,0,286.0,999.0,1.0,1145.0,0
1544,1544,-0.44626923592237966,-0.4,1,270.0,603.0,1.0,147.0,1
1545,1545,-0.6072389554605924,-0.6,1,298.0,931.0,1.0,1421.0,1
1546,1546,0.8962997519690576,0.9,0,323.0,542.0,0.0,1005.0,1
1547,1547,-0.9677820413774305,-1.0,1,399.0,907.0,1.0,294.0,1
1548,1548,0.2950616008037532,0.3,0,447.0,536.0,1.0,137.0,0
1549,1549,-0.5329634611080751,-0.5,1,479.0,728.0,1.0,413.0,1
1550,1550,0.5524837004872714,0.6,0,299.0,866.0,0.0,335.0,1
1551,1551,-0.2220839565157049,-0.2,1,329.0,674.0,1.0,217.0,1
1552,1552,0.49536107803569784,0.5,0,472.0,703.0,0.0,325.0,1
1553,1553,-0.5108869064043922,-0.5,1,393.0,656.0,1.0,171.0,1
1554,1554,-0.4433980819699479,-0.4,1,283.0,838.0,0.0,329.0,0
1555,1555,-0.5400878511869831,-0.5,1,424.0,632.0,1.0,534.0,1
1556,1556,0.7084743137204208,0.7,0,363.0,841.0,0.0,286.0,1
1557,1557,-0.14985534796289346,-0.1,1,375.0,919.0,1.0,1216.0,1
1558,1558,-0.08786886316669751,-0.1,1,479.0,887.0,1.0,744.0,1
1559,1559,-0.2966940490140033,-0.3,1,304.0,728.0,1.0,298.0,1
1560,1560,0.9812940565256898,1.0,0,329.0,645.0,0.0,166.0,1
1561,1561,-0.6387795614144087,-0.6,1,472.0,928.0,1.0,170.0,1
1562,1562,0.6106554536966511,0.6,0,456.0,644.0,0.0,970.0,1
1563,1563,-0.7148587182097557,-0.7,1,287.0,508.0,1.0,295.0,1
1564,1564,-0.19050045304610452,-0.2,1,395.0,773.0,1.0,1112.0,1
1565,1565,-0.04596455075344785,-0.0,1,402.0,539.0,1.0,139.0,1
1566,1566,0.04838773390635209,0.0,0,361.0,864.0,0.0,385.0,1
1567,1567,-0.32720505355137885,-0.3,1,440.0,880.0,1.0,1140.0,1
1568,1568,-0.41501403078067667,-0.4,1,448.0,815.0,0.0,387.0,0
1569,1569,0.2989119371246638,0.3,0,483.0,880.0,1.0,127.0,0
1570,1570,0.9956308804174452,1.0,0,416.0,628.0,0.0,336.0,1
1571,1571,0.647423137387259,0.6,0,255.0,534.0,0.0,931.0,1
1572,1572,-0.9581440467831479,-1.0,1,420.0,917.0,1.0,313.0,1
1573,1573,0.6311080339172097,0.6,0,494.0,691.0,0.0,185.0,1
1574,1574,-0.8015301259044811,-0.8,1,483.0,907.0,1.0,380.0,1
1575,1575,-0.8212694154920841,-0.8,1,470.0,870.0,1.0,410.0,1
1576,1576,-0.9707936429326314,-1.0,1,289.0,681.0,1.0,200.0,1
1577,1577,-0.7096086372190686,-0.7,1,394.0,717.0,1.0,649.0,1
1578,1578,0.15643827015905054,0.2,0,260.0,578.0,0.0,142.0,1
1579,1579,0.7634056997209766,0.8,0,308.0,715.0,0.0,1247.0,1
1580,1580,0.593853970348516,0.6,0,418.0,599.0,0.0,213.0,1
1581,1581,0.78742484312514,0.8,0,283.0,577.0,0.0,310.0,1
1582,1582,-0.8021193319497593,-0.8,1,477.0,514.0,1.0,139.0,1
1583,1583,-0.7576837272761952,-0.8,1,456.0,828.0,1.0,726.0,1
1584,1584,0.9219668289411904,0.9,0,255.0,884.0,0.0,251.0,1
1585,1585,-0.0017947850160306977,-0.0,1,416.0,600.0,1.0,1824.0,1
1586,1586,0.39469753447184797,0.4,0,407.0,505.0,0.0,678.0,1
1587,1587,0.7043301499155112,0.7,0,438.0,558.0,0.0,144.0,1
1588,1588,0.1774155557692232,0.2,0,434.0,854.0,1.0,82.0,0
1589,1589,0.5031634754676455,0.5,0,412.0,931.0,0.0,1857.0,1
1590,1590,-0.5944355730305355,-0.6,1,411.0,748.0,1.0,391.0,1
1591,1591,-0.43372276699996326,-0.4,1,270.0,567.0,1.0,153.0,1
1592,1592,0.5213290418455208,0.5,0,251.0,628.0,0.0,651.0,1
1593,1593,0.27644199009467973,0.3,0,417.0,719.0,0.0,374.0,1
1594,1594,-0.28026124631099325,-0.3,1,387.0,948.0,1.0,845.0,1
1595,1595,-0.10510941597268397,-0.1,1,312.0,772.0,0.0,316.0,0
1596,1596,-0.4917987930730523,-0.5,1,251.0,730.0,1.0,189.0,1
1597,1597,0.26428611805150304,0.3,0,267.0,852.0,0.0,411.0,1
1598,1598,0.3870597491031875,0.4,0,336.0,876.0,0.0,688.0,1
1599,1599,-0.20312749277539077,-0.2,1,444.0,772.0,0.0,674.0,0
1600,1600,0.5114195402538595,0.5,0,283.0,551.0,0.0,636.0,1
1601,1601,0.19276705993494447,0.2,0,416.0,768.0,1.0,1196.0,0
1602,1602,0.5813174104609244,0.6,0,344.0,865.0,0.0,241.0,1
1603,1603,0.8810538354038475,0.9,0,478.0,914.0,0.0,778.0,1
1604,1604,-0.6153535912519355,-0.6,1,342.0,828.0,1.0,280.0,1
1605,1605,-0.9002239502976521,-0.9,1,345.0,557.0,1.0,518.0,1
1606,1606,-0.26323460396631027,-0.3,1,344.0,644.0,1.0,202.0,1
1607,1607,-0.08651465930070046,-0.1,1,431.0,816.0,1.0,1083.0,1
1608,1608,-0.47295516711269503,-0.5,1,427.0,532.0,1.0,311.0,1
1609,1609,-0.7094276517796554,-0.7,1,291.0,755.0,1.0,84.0,1
1610,1610,-0.23745816709239542,-0.2,1,401.0,589.0,0.0,220.0,0
1611,1611,0.22993722931741445,0.2,0,259.0,591.0,1.0,460.0,0
1612,1612,-0.01216396407064857,-0.0,1,480.0,968.0,0.0,232.0,0
1613,1613,0.8018184706989295,0.8,0,428.0,755.0,0.0,857.0,1
1614,1614,-0.5370166731347534,-0.5,1,365.0,985.0,1.0,200.0,1
1615,1615,0.986636622235908,1.0,0,451.0,880.0,0.0,299.0,1
1616,1616,0.46069133509951943,0.5,0,333.0,778.0,0.0,609.0,1
1617,1617,-0.9137292916283688,-0.9,1,303.0,757.0,1.0,770.0,1
1618,1618,0.13317700488147244,0.1,0,258.0,626.0,1.0,916.0,0
1619,1619,-0.09756985240722571,-0.1,1,286.0,819.0,1.0,1215.0,1
1620,1620,-0.700132375929374,-0.7,1,276.0,538.0,1.0,186.0,1
1621,1621,0.09633093754748501,0.1,0,293.0,769.0,0.0,398.0,1
1622,1622,-0.622558867622006,-0.6,1,277.0,507.0,1.0,246.0,1
1623,1623,0.6352255851725797,0.6,0,486.0,844.0,0.0,1080.0,1
1624,1624,0.2890486335394382,0.3,0,357.0,570.0,0.0,1093.0,1
1625,1625,-0.34530112514972644,-0.3,1,451.0,787.0,1.0,1182.0,1
1626,1626,0.5810095623711604,0.6,0,285.0,731.0,1.0,174.0,0
1627,1627,0.46466109640378295,0.5,0,254.0,595.0,0.0,341.0,1
1628,1628,0.33136710240842815,0.3,0,480.0,514.0,0.0,256.0,1
1629,1629,-0.8342995230515629,-0.8,1,440.0,861.0,1.0,289.0,1
1630,1630,-0.11112204181288976,-0.1,1,410.0,968.0,1.0,162.0,1
1631,1631,-0.294516841687988,-0.3,1,291.0,889.0,1.0,330.0,1
1632,1632,-0.41498515675457637,-0.4,1,495.0,843.0,1.0,572.0,1
1633,1633,-0.6166257258737877,-0.6,1,466.0,763.0,1.0,381.0,1
1634,1634,0.3767766690461207,0.4,0,265.0,916.0,0.0,349.0,1
1635,1635,0.26862881646232784,0.3,0,291.0,709.0,0.0,450.0,1
1636,1636,-0.5631754651074525,-0.6,1,368.0,860.0,1.0,192.0,1
1637,1637,-0.8183217009656589,-0.8,1,405.0,585.0,1.0,240.0,1
1638,1638,0.1111945571480748,0.1,0,468.0,926.0,1.0,576.0,0
1639,1639,0.346863398568535,0.3,0,370.0,695.0,1.0,395.0,0
1640,1640,-0.008813434850811097,-0.0,1,326.0,893.0,1.0,1651.0,1
1641,1641,0.5293452045726139,0.5,0,429.0,948.0,0.0,193.0,1
1642,1642,0.15639296408177827,0.2,0,341.0,873.0,0.0,336.0,1
1643,1643,0.6954101867014859,0.7,0,325.0,739.0,0.0,196.0,1
1644,1644,0.23493195386419696,0.2,0,389.0,551.0,0.0,1720.0,1
1645,1645,-0.7321572762046384,-0.7,1,341.0,589.0,1.0,400.0,1
1646,1646,-0.5447272327211179,-0.5,1,355.0,965.0,1.0,540.0,1
1647,1647,-0.8299183111196813,-0.8,1,371.0,699.0,1.0,450.0,1
1648,1648,0.398547737144338,0.4,0,430.0,742.0,1.0,458.0,0
1649,1649,-0.3852218769094038,-0.4,1,404.0,574.0,1.0,1002.0,1
1650,1650,-0.939742055425737,-0.9,1,410.0,948.0,1.0,392.0,1
1651,1651,-0.32354682489511055,-0.3,1,405.0,581.0,1.0,274.0,1
1652,1652,0.5857074324487292,0.6,0,425.0,520.0,1.0,295.0,0
1653,1653,-0.01713916789498815,-0.0,1,268.0,513.0,1.0,249.0,1
1654,1654,0.8944811402175004,0.9,0,453.0,613.0,0.0,904.0,1
1655,1655,-0.59510256764205,-0.6,1,284.0,913.0,1.0,283.0,1
1656,1656,-0.49947994938792695,-0.5,1,437.0,840.0,1.0,163.0,1
1657,1657,0.6449355523697273,0.6,0,267.0,960.0,0.0,233.0,1
1658,1658,-0.5316428522876437,-0.5,1,411.0,728.0,1.0,381.0,1
1659,1659,-0.9731336899491505,-1.0,1,268.0,822.0,1.0,180.0,1
1660,1660,-0.6775841896395942,-0.7,1,439.0,823.0,1.0,348.0,1
1661,1661,-0.33949287948481066,-0.3,1,486.0,554.0,1.0,170.0,1
1662,1662,-0.5921875968683126,-0.6,1,478.0,521.0,1.0,831.0,1
1663,1663,0.9401839519492583,0.9,0,362.0,688.0,0.0,720.0,1
1664,1664,-0.2437787198766701,-0.2,1,309.0,589.0,1.0,462.0,1
1665,1665,-0.8858749584006731,-0.9,1,284.0,529.0,1.0,237.0,1
1666,1666,-0.7602296628197578,-0.8,1,277.0,896.0,1.0,147.0,1
1667,1667,-0.6522017399797297,-0.7,1,425.0,548.0,1.0,367.0,1
1668,1668,0.5826665023783308,0.6,0,336.0,691.0,0.0,613.0,1
1669,1669,-0.9498987036276096,-0.9,1,391.0,537.0,1.0,652.0,1
1670,1670,-0.7799329508743509,-0.8,1,351.0,562.0,1.0,577.0,1
1671,1671,0.3207138230850899,0.3,0,488.0,666.0,0.0,276.0,1
1672,1672,0.18495544757536386,0.2,0,400.0,665.0,1.0,245.0,0
1673,1673,0.7802899890413306,0.8,0,333.0,578.0,0.0,659.0,1
1674,1674,0.12855412558702084,0.1,0,334.0,582.0,1.0,1464.0,0
1675,1675,0.27625243166659663,0.3,0,255.0,918.0,0.0,3297.0,1
1676,1676,-0.9927611196981285,-1.0,1,398.0,748.0,1.0,524.0,1
1677,1677,0.12855438798760077,0.1,0,442.0,820.0,1.0,1908.0,0
1678,1678,0.3360042783423671,0.3,0,489.0,642.0,1.0,519.0,0
1679,1679,0.9430096080404022,0.9,0,440.0,794.0,0.0,276.0,1
1680,1680,0.1738308920252365,0.2,0,288.0,705.0,0.0,1127.0,1
1681,1681,-0.184038041234583,-0.2,1,398.0,865.0,1.0,307.0,1
1682,1682,0.8436356946586923,0.8,0,466.0,741.0,0.0,253.0,1
1683,1683,0.8016750259255516,0.8,0,321.0,632.0,0.0,327.0,1
1684,1684,0.8959390307118682,0.9,0,436.0,854.0,0.0,590.0,1
1685,1685,0.21125125752054852,0.2,0,330.0,917.0,1.0,183.0,0
1686,1686,0.08223819723104597,0.1,0,356.0,673.0,1.0,661.0,0
1687,1687,-0.3642868294091919,-0.4,1,264.0,948.0,1.0,318.0,1
1688,1688,0.670737646380827,0.7,0,476.0,676.0,0.0,408.0,1
1689,1689,-0.4199953697270611,-0.4,1,421.0,902.0,1.0,217.0,1
1690,1690,-0.32929323198033256,-0.3,1,478.0,967.0,1.0,575.0,1
