,trial,coherence,coherence_bin,correct_side,target_onset,checker_onset,decision,decision_time,correct_decision,init_y_left
0,0,-0.7346803023582096,-0.7,1,454.0,692.0,1.0,264.0,1,0.18947022186936296
1,1,-0.8673896661309393,-0.9,1,333.0,816.0,1.0,371.0,1,0.3438355556651458
2,2,-0.6273141749285684,-0.6,1,309.0,557.0,1.0,454.0,1,0.15660383530585578
3,3,-0.35738578074472516,-0.4,1,316.0,990.0,1.0,564.0,1,0.35282285405516073
4,4,0.9780044069546858,1.0,0,384.0,644.0,0.0,142.0,1,0.27561552067330264
5,5,0.6678626767687594,0.7,0,406.0,790.0,0.0,254.0,1,0.046908735588307465
6,6,-0.567204139029458,-0.6,1,417.0,723.0,1.0,260.0,1,0.289126177965993
7,7,0.30452840972106343,0.3,0,302.0,938.0,0.0,290.0,1,0.3998464673261948
8,8,-0.4278658373471591,-0.4,1,422.0,707.0,1.0,601.0,1,0.06527979886095366
9,9,-0.5788261505500423,-0.6,1,290.0,991.0,1.0,429.0,1,0.33789497212699804
10,10,0.24294790026353552,0.2,0,462.0,685.0,0.0,243.0,1,0.2635864721228564
11,11,-0.7904948000845713,-0.8,1,360.0,958.0,1.0,502.0,1,0.03618607686176394
12,12,0.28231682884790366,0.3,0,366.0,913.0,0.0,291.0,1,0.28360972851357485
13,13,0.3116130659040326,0.3,0,362.0,934.0,1.0,274.0,0,0.12529237631670384
14,14,0.5312545468336223,0.5,0,403.0,860.0,0.0,377.0,1,0.1340388549579313
15,15,0.049010579110116304,0.0,0,310.0,736.0,0.0,514.0,1,0.2233006082761514
16,16,-0.38949979282755964,-0.4,1,304.0,980.0,1.0,286.0,1,0.21496983246327395
17,17,0.4642273514121322,0.5,0,327.0,895.0,0.0,508.0,1,0.1128538410550434
18,18,0.019475582329523178,0.0,0,352.0,852.0,1.0,1126.0,0,0.33507750341482284
19,19,-0.11958308322472977,-0.1,1,426.0,918.0,1.0,476.0,1,0.13489960594248857
20,20,0.6432158064687112,0.6,0,394.0,843.0,0.0,263.0,1,0.3752029151242611
21,21,0.738029534391329,0.7,0,450.0,528.0,0.0,272.0,1,0.12300973083143436
22,22,-0.35364427401441345,-0.4,1,325.0,943.0,1.0,322.0,1,0.015519636931133673
23,23,0.627782712563135,0.6,0,308.0,744.0,0.0,338.0,1,0.33581508653081343
24,24,0.8891710824795063,0.9,0,281.0,517.0,0.0,322.0,1,0.09614380249918515
25,25,0.7796449182772489,0.8,0,452.0,989.0,0.0,519.0,1,0.2008884178231042
26,26,-0.8260069701286956,-0.8,1,409.0,533.0,1.0,378.0,1,0.11778679592753374
27,27,-0.41650751517315965,-0.4,1,421.0,578.0,1.0,461.0,1,0.15686571769940644
28,28,-0.10778912476996227,-0.1,1,413.0,551.0,1.0,1756.0,1,0.028583552429500215
29,29,-0.4423694262104352,-0.4,1,273.0,973.0,1.0,1024.0,1,0.3650356021453718
30,30,0.5637468199272451,0.6,0,363.0,860.0,0.0,327.0,1,0.18846885700360627
31,31,-0.4180400120306418,-0.4,1,273.0,813.0,1.0,304.0,1,0.17835220909826283
32,32,-0.3210622966898684,-0.3,1,251.0,762.0,1.0,247.0,1,0.28794915828642914
33,33,0.856758661298346,0.9,0,461.0,565.0,0.0,394.0,1,0.06292078686400725
34,34,-0.26250350979830905,-0.3,1,383.0,949.0,1.0,478.0,1,0.37954453187420023
35,35,-0.09605169474648023,-0.1,1,462.0,569.0,1.0,579.0,1,0.050999129198107035
36,36,0.7408990093559291,0.7,0,398.0,784.0,0.0,378.0,1,0.0016043862016659638
37,37,0.6585347009664964,0.7,0,463.0,767.0,0.0,450.0,1,0.33873699745682345
38,38,0.7334523930700287,0.7,0,388.0,909.0,0.0,263.0,1,0.10560090052315188
39,39,-0.4213841085007133,-0.4,1,399.0,902.0,1.0,609.0,1,0.11142874563745814
40,40,0.5173491073756737,0.5,0,490.0,641.0,0.0,219.0,1,0.1622301941843159
41,41,-0.6256553222370727,-0.6,1,279.0,846.0,1.0,295.0,1,0.10179239959824288
42,42,0.8004910693865646,0.8,0,381.0,999.0,0.0,270.0,1,0.10619345698057257
43,43,0.04626657546799051,0.0,0,498.0,776.0,0.0,1756.0,1,0.33740572364430593
44,44,-0.24110472753598855,-0.2,1,412.0,503.0,1.0,575.0,1,0.18011135827328184
45,45,0.42825599255815083,0.4,0,458.0,501.0,0.0,401.0,1,0.10377853341719466
46,46,-0.17852299765153612,-0.2,1,497.0,739.0,1.0,794.0,1,0.3737592214881025
47,47,0.2880496603153715,0.3,0,401.0,628.0,0.0,521.0,1,0.04967967987289268
48,48,0.9136373237856703,0.9,0,468.0,851.0,0.0,111.0,1,0.3724693037410085
49,49,0.6191494555358428,0.6,0,435.0,711.0,0.0,354.0,1,0.16049814145463182
50,50,0.031436021152859484,0.0,0,345.0,724.0,0.0,371.0,1,0.38474535607061816
51,51,-0.0909810047234536,-0.1,1,457.0,590.0,0.0,693.0,0,0.211190321153045
52,52,0.35118888086811295,0.4,0,276.0,906.0,0.0,278.0,1,0.17769279413878794
53,53,-0.7448981210300916,-0.7,1,377.0,750.0,1.0,503.0,1,0.18447000157588894
54,54,0.6671240079566778,0.7,0,364.0,528.0,0.0,408.0,1,0.11180825910988178
55,55,-0.5031553573840057,-0.5,1,492.0,672.0,1.0,466.0,1,0.18029964268170567
56,56,0.624656094312456,0.6,0,255.0,992.0,0.0,303.0,1,0.14530861772748885
57,57,0.05574577722407281,0.1,0,485.0,639.0,0.0,1836.0,1,0.1112319899554247
58,58,-0.010312038944882307,-0.0,1,470.0,839.0,0.0,1001.0,0,0.21386795255851682
59,59,0.1175013837631973,0.1,0,376.0,884.0,0.0,1360.0,1,0.24532159645614782
60,60,-0.3723998746448376,-0.4,1,390.0,953.0,1.0,267.0,1,0.34052653900245444
61,61,-0.09024895548400225,-0.1,1,431.0,801.0,1.0,918.0,1,0.1379681797630569
62,62,0.9497188849464921,0.9,0,378.0,779.0,0.0,313.0,1,0.10172788195551635
63,63,-0.6263587521691671,-0.6,1,433.0,773.0,1.0,414.0,1,0.02029488245643396
64,64,-0.15579016118963618,-0.2,1,492.0,787.0,1.0,381.0,1,0.2512428708340231
65,65,0.05576025528764417,0.1,0,364.0,616.0,0.0,810.0,1,0.1960764763992657
66,66,0.8958639923407903,0.9,0,403.0,821.0,0.0,226.0,1,0.21459237806563844
67,67,0.8757990327929921,0.9,0,261.0,926.0,0.0,323.0,1,0.018803712409199494
68,68,-0.7889502858546993,-0.8,1,255.0,595.0,1.0,290.0,1,0.18087817658620942
69,69,0.21982383290015273,0.2,0,297.0,656.0,0.0,387.0,1,0.05499384078590448
70,70,0.9701704591660298,1.0,0,472.0,697.0,0.0,351.0,1,0.09057498002914532
71,71,0.6332107189972955,0.6,0,329.0,877.0,0.0,654.0,1,0.1075841491490761
72,72,-0.6678738504385429,-0.7,1,366.0,568.0,1.0,336.0,1,0.09104463911623416
73,73,0.3650520541983828,0.4,0,350.0,817.0,0.0,393.0,1,0.024798173098717503
74,74,-0.020068308270987156,-0.0,1,428.0,777.0,1.0,945.0,1,0.06981908834223027
75,75,-0.6101754956162981,-0.6,1,423.0,944.0,1.0,403.0,1,0.2698412658630761
76,76,-0.4412328073902847,-0.4,1,474.0,866.0,1.0,390.0,1,0.15724946246598456
77,77,-0.466560867803248,-0.5,1,336.0,515.0,1.0,359.0,1,0.00045079276202000253
78,78,0.16305181540108005,0.2,0,330.0,740.0,0.0,570.0,1,0.13137937989474854
79,79,-0.2726733997089834,-0.3,1,282.0,627.0,1.0,891.0,1,0.3612852261831825
80,80,0.8458871680217526,0.8,0,363.0,543.0,0.0,134.0,1,0.011763655808166452
81,81,-0.17373027118055706,-0.2,1,402.0,883.0,1.0,535.0,1,0.20372986808479987
82,82,0.7918360062190686,0.8,0,267.0,516.0,0.0,367.0,1,0.09208616233572614
83,83,-0.9330648267684876,-0.9,1,293.0,680.0,1.0,317.0,1,0.026893309310259995
84,84,0.9384459448804083,0.9,0,331.0,775.0,0.0,354.0,1,0.04660198299017222
85,85,-0.6273154977655253,-0.6,1,305.0,691.0,1.0,274.0,1,0.319150241266144
86,86,0.09061682753994194,0.1,0,449.0,514.0,0.0,1077.0,1,0.3847883554738187
87,87,0.9644476091991458,1.0,0,392.0,524.0,0.0,164.0,1,0.24037267748451582
88,88,-0.4716844534241391,-0.5,1,277.0,741.0,1.0,1702.0,1,0.036280635958504746
89,89,0.5461915286186487,0.5,0,327.0,747.0,0.0,266.0,1,0.22140381447621912
90,90,0.23811046500324684,0.2,0,253.0,603.0,0.0,754.0,1,0.25018001751386115
91,91,0.5216419805072519,0.5,0,381.0,544.0,0.0,425.0,1,0.3563012747730635
92,92,0.4212493720848969,0.4,0,287.0,767.0,0.0,296.0,1,0.013556284614914295
93,93,-0.5971968582433809,-0.6,1,256.0,512.0,1.0,372.0,1,0.37063041536656205
94,94,0.865934788143369,0.9,0,399.0,651.0,0.0,350.0,1,0.19441214525991068
95,95,-0.8522719966425574,-0.9,1,428.0,885.0,1.0,297.0,1,0.30822255423487643
96,96,0.8759573657401534,0.9,0,339.0,669.0,0.0,192.0,1,0.15658586040451827
97,97,-0.13078334493468025,-0.1,1,404.0,740.0,1.0,1006.0,1,0.3171705518936765
98,98,0.771442054185346,0.8,0,390.0,707.0,0.0,493.0,1,0.2745537970611931
99,99,-0.3673367059020589,-0.4,1,481.0,880.0,1.0,409.0,1,0.2534692474023836
100,100,0.5497543705649641,0.5,0,332.0,862.0,0.0,326.0,1,0.3342152597253314
101,101,0.83887547400163,0.8,0,484.0,620.0,0.0,386.0,1,0.14353568432114816
102,102,0.1244639398618792,0.1,0,417.0,837.0,1.0,516.0,0,0.13126780900853913
103,103,0.21035791681248006,0.2,0,469.0,741.0,0.0,1060.0,1,0.044475870165009646
104,104,-0.04369708762530844,-0.0,1,302.0,703.0,1.0,495.0,1,0.20031870784256936
105,105,-0.7102197712563929,-0.7,1,251.0,951.0,1.0,278.0,1,0.24165903469003727
106,106,-0.9733788236367376,-1.0,1,390.0,687.0,1.0,243.0,1,0.006088415097764566
107,107,0.3122705865068698,0.3,0,330.0,627.0,0.0,593.0,1,0.07487699280933731
108,108,-0.3416564650678924,-0.3,1,385.0,961.0,1.0,384.0,1,0.24129927809600413
109,109,-0.6200458696693554,-0.6,1,334.0,917.0,1.0,179.0,1,0.04546998064273882
110,110,0.1471762038791813,0.1,0,411.0,556.0,0.0,1093.0,1,0.24740723565868936
111,111,0.4437544451808335,0.4,0,410.0,952.0,0.0,368.0,1,0.15596463230185154
112,112,0.5779752232178152,0.6,0,342.0,872.0,0.0,656.0,1,0.3785388697781974
113,113,-0.8847307722088134,-0.9,1,453.0,896.0,1.0,191.0,1,0.18149610347751588
114,114,-0.003258074957565471,-0.0,1,295.0,939.0,0.0,2046.0,0,0.3293214507084191
115,115,0.200862888424443,0.2,0,426.0,633.0,0.0,861.0,1,0.2761110679195135
116,116,-0.19338424371657315,-0.2,1,499.0,672.0,1.0,2009.0,1,0.1744052958224215
117,117,-0.5310548676926214,-0.5,1,252.0,688.0,1.0,540.0,1,0.0865818832031906
118,118,0.9525034924490625,1.0,0,255.0,824.0,0.0,311.0,1,0.05578668821841513
119,119,-0.1449082566930906,-0.1,1,282.0,565.0,1.0,963.0,1,0.1480337531944186
120,120,-0.0263478125466996,-0.0,1,329.0,771.0,1.0,940.0,1,0.28203171448827097
121,121,0.5311902194081477,0.5,0,433.0,766.0,0.0,251.0,1,0.16356852536040997
122,122,-0.6055692558065149,-0.6,1,333.0,766.0,1.0,251.0,1,0.26377120045530095
123,123,-0.7968793403081338,-0.8,1,401.0,503.0,1.0,426.0,1,0.2551290240046543
124,124,0.024476945517762028,0.0,0,436.0,556.0,1.0,728.0,0,0.11771377646328918
125,125,-0.348430599649161,-0.3,1,253.0,842.0,1.0,465.0,1,0.18691483644294574
126,126,0.927453993884521,0.9,0,301.0,948.0,0.0,301.0,1,0.09988554181309942
127,127,-0.7220976329174449,-0.7,1,496.0,614.0,1.0,280.0,1,0.3678355053108175
128,128,-0.3443659895841391,-0.3,1,373.0,662.0,1.0,275.0,1,0.14872513852566502
129,129,-0.3669456673728737,-0.4,1,462.0,962.0,1.0,496.0,1,0.18406899912190167
130,130,0.06353159046029355,0.1,0,309.0,760.0,0.0,1681.0,1,0.33945433226657773
131,131,0.4280512902522793,0.4,0,383.0,918.0,0.0,419.0,1,0.06452484637312939
132,132,-0.14130840921020482,-0.1,1,496.0,554.0,1.0,720.0,1,0.3361803236598169
133,133,-0.48849826820959574,-0.5,1,482.0,500.0,1.0,588.0,1,0.01738888962520191
134,134,0.919318625883522,0.9,0,304.0,685.0,0.0,171.0,1,0.21496030960136214
135,135,-0.15136072321951088,-0.2,1,326.0,891.0,1.0,953.0,1,0.35197506776129117
136,136,-0.2380939435905316,-0.2,1,373.0,791.0,1.0,526.0,1,0.31268096727327865
137,137,-0.3195874413298969,-0.3,1,380.0,555.0,1.0,435.0,1,0.38355375706911343
138,138,-0.6399637027549758,-0.6,1,459.0,558.0,1.0,443.0,1,0.362364565808984
139,139,-0.3460982087361757,-0.3,1,492.0,521.0,1.0,387.0,1,0.21241763572983718
140,140,0.2992548753571156,0.3,0,395.0,642.0,0.0,613.0,1,0.32118972865563905
141,141,0.5696253288423172,0.6,0,257.0,786.0,0.0,287.0,1,0.260897570929774
142,142,0.8807653791069374,0.9,0,342.0,849.0,0.0,369.0,1,0.07169597421810484
143,143,-0.20846135014794198,-0.2,1,490.0,718.0,1.0,562.0,1,0.30922472094084813
144,144,-0.0038862250236328943,-0.0,1,250.0,821.0,0.0,1789.0,0,0.38364769538524446
145,145,0.1522628296034012,0.2,0,427.0,964.0,0.0,569.0,1,0.274906769252631
146,146,-0.34351972988999235,-0.3,1,361.0,854.0,1.0,825.0,1,0.08870813055937168
147,147,-0.9707496132984765,-1.0,1,342.0,599.0,1.0,269.0,1,0.33599268801033655
148,148,0.7185017635359134,0.7,0,329.0,914.0,0.0,507.0,1,0.16973364800185053
149,149,-0.5893126945962128,-0.6,1,451.0,828.0,1.0,221.0,1,0.37181153099341113
150,150,0.41830898152968077,0.4,0,308.0,701.0,0.0,541.0,1,0.36180855992820155
151,151,0.1855592596956519,0.2,0,325.0,818.0,1.0,2407.0,0,0.0037429997201264167
152,152,-0.531089818801858,-0.5,1,468.0,690.0,1.0,282.0,1,0.21709389772337923
153,153,-0.06574636537831768,-0.1,1,354.0,783.0,1.0,863.0,1,0.28080481599379736
154,154,0.738285630654187,0.7,0,404.0,657.0,0.0,249.0,1,0.35595824569223244
155,155,-0.39910241210321273,-0.4,1,436.0,586.0,1.0,588.0,1,0.35628563885036957
156,156,-0.38442298220833715,-0.4,1,484.0,546.0,1.0,530.0,1,0.23623161657904712
157,157,-0.3760955396981531,-0.4,1,361.0,639.0,1.0,240.0,1,0.22964969418884165
158,158,-0.2965888397128189,-0.3,1,317.0,841.0,1.0,502.0,1,0.013848807110811557
159,159,-0.1165766399905086,-0.1,1,368.0,585.0,1.0,617.0,1,0.36351086561613544
160,160,-0.6634948038828807,-0.7,1,427.0,778.0,1.0,1455.0,1,0.055869897800157275
161,161,0.5513392927905316,0.6,0,380.0,787.0,0.0,273.0,1,0.041969801700333556
162,162,-0.5534030387829829,-0.6,1,452.0,936.0,1.0,552.0,1,0.11363603369405469
163,163,-0.9145782697619571,-0.9,1,326.0,529.0,1.0,475.0,1,0.12834770541796187
164,164,-0.10387140942732698,-0.1,1,477.0,705.0,1.0,178.0,1,0.015607346445869875
165,165,0.10637019637174139,0.1,0,257.0,516.0,0.0,1097.0,1,0.1336684653152201
166,166,0.4282401449816273,0.4,0,258.0,732.0,0.0,630.0,1,0.091268407532904
167,167,0.13376684221206436,0.1,0,448.0,936.0,0.0,1886.0,1,0.2750376242824837
168,168,-0.9871920488289563,-1.0,1,403.0,788.0,1.0,279.0,1,0.1830311506470944
169,169,-0.488478346119793,-0.5,1,311.0,990.0,1.0,539.0,1,0.3848867150361162
170,170,-0.3812535661409391,-0.4,1,450.0,640.0,1.0,380.0,1,0.39751127674296216
171,171,0.6951110096490267,0.7,0,499.0,866.0,0.0,295.0,1,0.31647841093096757
172,172,-0.02742856524909909,-0.0,1,442.0,530.0,1.0,1818.0,1,0.2357912454786537
173,173,0.5219155738810506,0.5,0,305.0,639.0,0.0,626.0,1,0.11861171840060876
174,174,-0.6250378108790104,-0.6,1,278.0,656.0,1.0,586.0,1,0.39885219694196655
175,175,0.7616126073641123,0.8,0,355.0,558.0,0.0,187.0,1,0.35113262047990373
176,176,-0.23687847036783016,-0.2,1,343.0,972.0,1.0,355.0,1,0.24292320591269198
177,177,-0.7353856363393867,-0.7,1,436.0,528.0,1.0,236.0,1,0.03844152717689995
178,178,0.4847922745546773,0.5,0,306.0,784.0,0.0,310.0,1,0.13026787556483907
179,179,-0.14104814646216668,-0.1,1,360.0,732.0,1.0,528.0,1,0.22066960595050983
180,180,0.4629441061512387,0.5,0,287.0,594.0,0.0,489.0,1,0.32690429049314484
181,181,-0.7111834540228144,-0.7,1,290.0,889.0,1.0,1261.0,1,0.19865598740828957
182,182,-0.1566968633303749,-0.2,1,289.0,979.0,1.0,352.0,1,0.29098420787186197
183,183,0.7708742366500314,0.8,0,474.0,945.0,0.0,521.0,1,0.11606681458386192
184,184,0.37088784119144735,0.4,0,356.0,704.0,0.0,360.0,1,0.2058885913413335
185,185,0.6444057782036137,0.6,0,443.0,714.0,0.0,653.0,1,0.28174282936296874
186,186,-0.3303155744083872,-0.3,1,442.0,743.0,1.0,395.0,1,0.37231152565273357
187,187,0.7973857727927143,0.8,0,452.0,940.0,0.0,308.0,1,0.37107767560086535
188,188,0.9979593285780148,1.0,0,482.0,706.0,0.0,202.0,1,0.21377254222018155
189,189,-0.824836319315571,-0.8,1,466.0,651.0,1.0,1753.0,1,0.16571333380002398
190,190,-0.7859884250172922,-0.8,1,276.0,905.0,1.0,769.0,1,0.16261606443766496
191,191,0.4654616331214363,0.5,0,360.0,945.0,0.0,465.0,1,0.3218321160262793
192,192,-0.6197577514285015,-0.6,1,425.0,858.0,1.0,1457.0,1,0.05978523046876858
193,193,-0.5012696187667391,-0.5,1,320.0,514.0,1.0,376.0,1,0.31321064951087313
194,194,0.8918182898631284,0.9,0,273.0,528.0,0.0,219.0,1,0.13266818998501248
195,195,0.45215331327862507,0.5,0,402.0,905.0,0.0,343.0,1,0.14640174707049886
196,196,-0.464844393153546,-0.5,1,280.0,902.0,1.0,288.0,1,0.3750099127597045
197,197,-0.2896313226792939,-0.3,1,255.0,692.0,1.0,543.0,1,0.3990855407856949
198,198,-0.028044169001570696,-0.0,1,425.0,892.0,0.0,1853.0,0,0.13340038411643582
199,199,0.4038485193925325,0.4,0,440.0,908.0,0.0,642.0,1,0.2220745381554169
200,200,-0.2937031798133998,-0.3,1,306.0,634.0,1.0,520.0,1,0.08148367545522724
201,201,0.8053146713501427,0.8,0,412.0,600.0,0.0,478.0,1,0.3767609059830087
202,202,0.020298637995626923,0.0,0,462.0,787.0,1.0,591.0,0,0.3569319476817139
203,203,-0.6261505631246291,-0.6,1,291.0,911.0,1.0,438.0,1,0.20397380297997617
204,204,0.04368589723542082,0.0,0,435.0,735.0,0.0,830.0,1,0.16212366071823503
205,205,-0.9277009992683773,-0.9,1,467.0,991.0,1.0,292.0,1,0.23317391282083444
206,206,-0.9682667128042619,-1.0,1,430.0,756.0,1.0,264.0,1,0.3951576827797859
207,207,-0.28481106837664516,-0.3,1,482.0,917.0,1.0,521.0,1,0.25823696771397014
208,208,-0.6860180776813312,-0.7,1,480.0,697.0,1.0,303.0,1,0.25669881369023084
209,209,-0.18993983763498457,-0.2,1,382.0,822.0,1.0,1276.0,1,0.297443117770063
210,210,0.23849797789271565,0.2,0,323.0,511.0,0.0,946.0,1,0.24758030075667709
211,211,0.9814739899583427,1.0,0,419.0,864.0,0.0,327.0,1,0.06813097952448764
212,212,0.9187602174395999,0.9,0,290.0,963.0,0.0,237.0,1,0.18058751036242834
213,213,0.2581158103105292,0.3,0,460.0,726.0,0.0,1314.0,1,0.0632205314212687
214,214,-0.8498376521399216,-0.8,1,255.0,626.0,1.0,1089.0,1,0.06437861612482836
215,215,-0.7684857899461219,-0.8,1,255.0,534.0,1.0,781.0,1,0.048838970504744686
216,216,0.5000846494973126,0.5,0,437.0,814.0,0.0,339.0,1,0.30610374467934154
217,217,0.18447824117058498,0.2,0,305.0,686.0,0.0,439.0,1,0.3871068920610451
218,218,-0.347686313624072,-0.3,1,252.0,912.0,1.0,446.0,1,0.13326988395124326
219,219,-0.15807527746927774,-0.2,1,392.0,897.0,1.0,861.0,1,0.3421722024755637
220,220,-0.9130182665100024,-0.9,1,349.0,577.0,1.0,514.0,1,0.2825782008573891
221,221,0.20724297369638744,0.2,0,291.0,802.0,0.0,587.0,1,0.24979000887449943
222,222,0.17390518171480407,0.2,0,451.0,537.0,0.0,1182.0,1,0.08456854893887278
223,223,0.31200238274569947,0.3,0,317.0,965.0,0.0,778.0,1,0.05020549659492968
224,224,-0.14623094526665037,-0.1,1,366.0,858.0,1.0,876.0,1,0.21902098865309064
225,225,-0.8950775999105045,-0.9,1,306.0,935.0,1.0,169.0,1,0.18570514748096795
226,226,-0.6497186910612296,-0.6,1,446.0,922.0,1.0,622.0,1,0.13759937062168293
227,227,0.1605731227549554,0.2,0,381.0,686.0,0.0,533.0,1,0.14039726707853598
228,228,-0.41185478216806937,-0.4,1,337.0,646.0,1.0,297.0,1,0.11489720516203579
229,229,-0.027424918195703363,-0.0,1,360.0,863.0,0.0,2557.0,0,0.32965566979223465
230,230,0.1301388469372149,0.1,0,436.0,811.0,0.0,333.0,1,0.332150436500497
231,231,-0.6165818452408534,-0.6,1,325.0,906.0,1.0,329.0,1,0.3137193153554303
232,232,0.34974743929835905,0.3,0,317.0,822.0,0.0,331.0,1,0.049592643963347754
233,233,0.020705352513126885,0.0,0,437.0,963.0,0.0,1270.0,1,0.12824447783014495
234,234,-0.5788414657475278,-0.6,1,388.0,726.0,1.0,396.0,1,0.14726914293826102
235,235,0.8080963941550197,0.8,0,375.0,957.0,0.0,148.0,1,0.3279522070530694
236,236,0.19246154185491626,0.2,0,353.0,711.0,0.0,1386.0,1,0.24767335554573125
237,237,-0.6117277079219718,-0.6,1,354.0,600.0,1.0,506.0,1,0.1659782723710709
238,238,0.3819828422913487,0.4,0,374.0,762.0,0.0,274.0,1,0.022504069994757403
239,239,-0.7424591592130461,-0.7,1,438.0,613.0,1.0,489.0,1,0.30095008433629866
240,240,-0.3079735117464295,-0.3,1,482.0,961.0,1.0,537.0,1,0.3431283189163605
241,241,-0.022028056690646336,-0.0,1,461.0,584.0,1.0,695.0,1,0.31782538386210724
242,242,-0.933643221631945,-0.9,1,492.0,582.0,1.0,256.0,1,0.3281855138076535
243,243,0.6538074913869674,0.7,0,335.0,540.0,0.0,505.0,1,0.38322907765534214
244,244,0.7734680742532507,0.8,0,412.0,986.0,0.0,332.0,1,0.25640455695124653
245,245,0.8117233275135736,0.8,0,250.0,721.0,0.0,489.0,1,0.0658662213721104
246,246,0.10459166488684324,0.1,0,445.0,684.0,0.0,-609.0,1,0.3855844970419784
247,247,0.8436551706783817,0.8,0,294.0,938.0,0.0,398.0,1,0.27893156641735567
248,248,0.7205353011452111,0.7,0,426.0,602.0,0.0,422.0,1,0.142544982643184
249,249,0.749580578955777,0.7,0,302.0,937.0,0.0,251.0,1,0.25827672041647604
250,250,0.9721943479028305,1.0,0,371.0,833.0,0.0,146.0,1,0.2808386750238842
251,251,-0.2688224325636128,-0.3,1,361.0,696.0,1.0,573.0,1,0.2960727661217992
252,252,0.21018796071831458,0.2,0,269.0,708.0,0.0,463.0,1,0.2872289149728363
253,253,0.09749794353651042,0.1,0,476.0,917.0,1.0,307.0,0,0.18380591522785628
254,254,0.34044635199083695,0.3,0,393.0,941.0,0.0,666.0,1,0.07661451233244461
255,255,-0.46326903658629814,-0.5,1,419.0,550.0,1.0,391.0,1,0.01397483185283548
256,256,0.7165386579169883,0.7,0,395.0,693.0,0.0,412.0,1,0.1328137818760555
257,257,-0.2813322625879322,-0.3,1,462.0,688.0,1.0,850.0,1,0.280976666379278
258,258,-0.7759627218855751,-0.8,1,371.0,566.0,1.0,353.0,1,0.025051868145089442
259,259,-0.8962983344526341,-0.9,1,426.0,647.0,1.0,657.0,1,0.22861667830384463
260,260,-0.6092661768687686,-0.6,1,335.0,778.0,1.0,617.0,1,0.340434488749534
261,261,0.4744955179596215,0.5,0,436.0,832.0,0.0,682.0,1,0.18858034359029469
262,262,0.9576258468576397,1.0,0,471.0,856.0,0.0,283.0,1,0.06884799184355193
263,263,-0.44598268140507513,-0.4,1,480.0,971.0,1.0,379.0,1,0.0879126842183014
264,264,-0.24667110430860872,-0.2,1,260.0,911.0,1.0,1239.0,1,0.015438090048894272
265,265,-0.19655640329465673,-0.2,1,372.0,705.0,1.0,593.0,1,0.3703490545559835
266,266,-0.8134244540926792,-0.8,1,326.0,992.0,1.0,312.0,1,0.37647857381807825
267,267,0.8287853525514668,0.8,0,256.0,529.0,0.0,345.0,1,0.06325010533625251
268,268,-0.9678583904310409,-1.0,1,396.0,659.0,1.0,585.0,1,0.16535734531451887
269,269,-0.8645156211995648,-0.9,1,317.0,887.0,1.0,1076.0,1,0.2569470734906232
270,270,-0.9524563414970948,-1.0,1,283.0,843.0,1.0,374.0,1,0.2255879253459474
271,271,-0.6490747722982761,-0.6,1,337.0,903.0,1.0,580.0,1,0.29510368103847745
272,272,0.12625959402190357,0.1,0,304.0,529.0,0.0,1037.0,1,0.04049447435191605
273,273,0.04874754197432707,0.0,0,381.0,859.0,1.0,340.0,0,0.03076337198758803
274,274,-0.8267773173515869,-0.8,1,312.0,701.0,1.0,1807.0,1,0.03098031277539275
275,275,0.915508669596744,0.9,0,367.0,911.0,0.0,392.0,1,0.07421693471866542
276,276,0.6189643738614259,0.6,0,268.0,980.0,0.0,302.0,1,0.2398392613891096
277,277,-0.3108711596194238,-0.3,1,402.0,958.0,1.0,310.0,1,0.07469072475031417
278,278,-0.45600683149710974,-0.5,1,351.0,667.0,1.0,802.0,1,0.3788209298360723
279,279,-0.046499714089246025,-0.0,1,299.0,583.0,1.0,508.0,1,0.29146274906810626
280,280,0.7243456036210849,0.7,0,289.0,557.0,0.0,564.0,1,0.054576369882706866
281,281,0.5725425334819751,0.6,0,391.0,865.0,0.0,424.0,1,0.01664359759215475
282,282,0.5310983887604246,0.5,0,298.0,903.0,0.0,549.0,1,0.11471242599129777
283,283,0.34897855845598746,0.3,0,298.0,522.0,0.0,390.0,1,0.05067681690961621
284,284,-0.2693395089119899,-0.3,1,366.0,796.0,1.0,538.0,1,0.03507034479392601
285,285,-0.7876516755524374,-0.8,1,493.0,808.0,1.0,369.0,1,0.20412896801527675
286,286,0.05717691827332394,0.1,0,424.0,803.0,0.0,563.0,1,0.19784150198536393
287,287,-0.8330374948290302,-0.8,1,327.0,510.0,1.0,313.0,1,0.24435735574858553
288,288,0.9746394978456854,1.0,0,350.0,550.0,0.0,280.0,1,0.2871496323068335
289,289,0.5227985993284952,0.5,0,335.0,721.0,0.0,374.0,1,0.06241943439821358
290,290,0.41515910727726,0.4,0,446.0,577.0,0.0,357.0,1,0.3766676728864339
291,291,0.5673887929461143,0.6,0,475.0,715.0,0.0,360.0,1,0.22552867326181159
292,292,-0.5496986261990218,-0.5,1,294.0,623.0,1.0,383.0,1,0.2716644163006634
293,293,0.03387393905821967,0.0,0,451.0,569.0,0.0,610.0,1,0.300693479299329
294,294,0.7301620603295649,0.7,0,359.0,744.0,0.0,307.0,1,0.3328854449539733
295,295,0.19169354756954737,0.2,0,487.0,513.0,0.0,660.0,1,0.25815442191417326
296,296,0.7843599626303375,0.8,0,380.0,779.0,0.0,331.0,1,0.08674141533021906
297,297,0.2725528541136981,0.3,0,488.0,770.0,0.0,1112.0,1,0.04987934592199244
298,298,-0.8881509374806809,-0.9,1,275.0,959.0,1.0,606.0,1,0.09113749815908033
299,299,-0.10718103868424222,-0.1,1,293.0,926.0,1.0,511.0,1,0.12899324420729125
300,300,0.5485854060525683,0.5,0,271.0,524.0,0.0,505.0,1,0.03184168895430091
301,301,-0.9731620698505004,-1.0,1,356.0,730.0,1.0,434.0,1,0.3506062143570555
302,302,-0.36410796953198465,-0.4,1,499.0,699.0,1.0,712.0,1,0.11775761856555095
303,303,0.8935188760011985,0.9,0,377.0,869.0,0.0,274.0,1,0.1898265493410509
304,304,0.10871449147874701,0.1,0,338.0,755.0,0.0,977.0,1,0.269113672342746
305,305,0.6906847728619994,0.7,0,273.0,748.0,0.0,199.0,1,0.31995927018431075
306,306,-0.20157588821134165,-0.2,1,412.0,613.0,1.0,1075.0,1,0.3837034600773645
307,307,0.757077240843467,0.8,0,327.0,511.0,0.0,802.0,1,0.39139311297328777
308,308,0.8982191690245345,0.9,0,408.0,672.0,0.0,270.0,1,0.2750351118106839
309,309,-0.025175074504485195,-0.0,1,332.0,619.0,1.0,429.0,1,0.05782969944551182
310,310,-0.5394657623529147,-0.5,1,331.0,965.0,1.0,234.0,1,0.3483632796520271
311,311,0.999471224607434,1.0,0,489.0,889.0,0.0,162.0,1,0.29411051584923964
312,312,0.8217760193012491,0.8,0,261.0,948.0,0.0,491.0,1,0.023035398679327426
313,313,-0.9234199956674276,-0.9,1,338.0,911.0,1.0,421.0,1,0.14722530604797948
314,314,-0.7745289271349627,-0.8,1,432.0,862.0,1.0,336.0,1,0.2346770828894783
315,315,0.9454193841282266,0.9,0,426.0,644.0,0.0,130.0,1,0.3679527419681622
316,316,0.7240988262766184,0.7,0,475.0,916.0,0.0,189.0,1,0.17880292665420483
317,317,0.15326611733632411,0.2,0,412.0,974.0,1.0,644.0,0,0.11389546360402876
318,318,-0.19737742192844498,-0.2,1,350.0,728.0,1.0,322.0,1,0.23713707558921737
319,319,0.6502958648685215,0.7,0,358.0,563.0,0.0,269.0,1,0.022075714659263435
320,320,-0.7791976754552041,-0.8,1,465.0,522.0,1.0,303.0,1,0.15974288090163247
321,321,-0.8965531825770678,-0.9,1,395.0,794.0,1.0,341.0,1,0.23942248617647102
322,322,0.09940471272501039,0.1,0,497.0,595.0,0.0,148.0,1,0.295363277252501
323,323,0.9330113720468018,0.9,0,272.0,848.0,0.0,430.0,1,0.10209546904209721
324,324,-0.5670777579245811,-0.6,1,396.0,669.0,1.0,495.0,1,0.39098504562910824
325,325,0.8303025297481126,0.8,0,470.0,823.0,0.0,427.0,1,0.29475023739556433
326,326,-0.16128701702621995,-0.2,1,360.0,842.0,1.0,1348.0,1,0.31546845433799536
327,327,-0.8951347832370171,-0.9,1,419.0,634.0,1.0,377.0,1,0.18153760762752516
328,328,-0.28274867851147856,-0.3,1,328.0,788.0,1.0,444.0,1,0.14132895020515668
329,329,-0.6522516776902234,-0.7,1,425.0,750.0,1.0,355.0,1,0.3429816946760986
330,330,-0.8149226748449401,-0.8,1,415.0,631.0,1.0,284.0,1,0.3647600461562508
331,331,-0.16404293295175276,-0.2,1,383.0,572.0,1.0,485.0,1,0.07477673453018295
332,332,-0.17019496273425316,-0.2,1,287.0,934.0,1.0,519.0,1,0.3152107033078833
333,333,-0.8467105708258083,-0.8,1,339.0,995.0,1.0,436.0,1,0.053758328402452496
334,334,-0.8635786819204716,-0.9,1,459.0,790.0,1.0,301.0,1,0.33088189232751775
335,335,0.9061418856350274,0.9,0,448.0,579.0,0.0,223.0,1,0.22254567061386316
336,336,-0.9974991588830835,-1.0,1,306.0,826.0,1.0,218.0,1,0.015200240883774408
337,337,-0.3235218394388095,-0.3,1,314.0,639.0,1.0,307.0,1,0.39804920551409284
338,338,-0.6519499603090131,-0.7,1,423.0,706.0,1.0,381.0,1,0.29296275525351956
339,339,0.20234127001600766,0.2,0,344.0,681.0,0.0,545.0,1,0.18067499060468864
340,340,-0.6899030432804172,-0.7,1,459.0,525.0,1.0,356.0,1,0.2657860802270544
341,341,-0.8494520189909773,-0.8,1,328.0,908.0,1.0,204.0,1,0.21830898448273084
342,342,-0.054580141428662854,-0.1,1,435.0,917.0,0.0,1178.0,0,0.23283152797830053
343,343,0.5026471217722677,0.5,0,302.0,508.0,0.0,430.0,1,0.39538917614585134
344,344,0.048275885666704044,0.0,0,362.0,840.0,0.0,478.0,1,0.2815688563384687
345,345,0.4750250946147785,0.5,0,306.0,812.0,0.0,242.0,1,0.07196075761242096
346,346,-0.6578485818034026,-0.7,1,450.0,720.0,1.0,200.0,1,0.2178117529971728
347,347,-0.381624742581953,-0.4,1,437.0,603.0,1.0,430.0,1,0.389061688961178
348,348,-0.862232113470933,-0.9,1,302.0,992.0,1.0,276.0,1,0.03423215566936229
349,349,0.8948275231150222,0.9,0,360.0,611.0,0.0,459.0,1,0.13989911155435064
350,350,0.9166637618099562,0.9,0,466.0,810.0,0.0,324.0,1,0.2592252732780764
351,351,0.5871455031821238,0.6,0,374.0,600.0,0.0,506.0,1,0.31279490758869
352,352,0.16364439507056772,0.2,0,378.0,518.0,0.0,304.0,1,0.22697306238851878
353,353,-0.8078985013159519,-0.8,1,351.0,869.0,1.0,590.0,1,0.11484882263651071
354,354,0.4032705413402742,0.4,0,411.0,530.0,0.0,289.0,1,0.3218510053861115
355,355,0.0876245476777906,0.1,0,487.0,835.0,0.0,418.0,1,0.3083251465782216
356,356,0.16256548627863965,0.2,0,426.0,796.0,0.0,1588.0,1,0.07343872924440441
357,357,-0.3138355237111181,-0.3,1,434.0,875.0,1.0,1221.0,1,0.12702318435359813
358,358,-0.9407025769561959,-0.9,1,296.0,895.0,1.0,409.0,1,0.035917180467398606
359,359,0.5435309904270258,0.5,0,425.0,936.0,0.0,529.0,1,0.07959670273128205
360,360,0.3907044858081914,0.4,0,368.0,733.0,0.0,219.0,1,0.03877297357935388
361,361,-0.6136798931521039,-0.6,1,464.0,565.0,1.0,411.0,1,0.0024102967104749685
362,362,-0.8126647019553048,-0.8,1,476.0,999.0,1.0,475.0,1,0.3747809133123643
363,363,0.49857896762638476,0.5,0,392.0,836.0,0.0,192.0,1,0.18966916577422843
364,364,0.38865853952841034,0.4,0,366.0,980.0,0.0,194.0,1,0.3479446547523907
365,365,0.5230324566408029,0.5,0,427.0,621.0,0.0,492.0,1,0.284925772722861
366,366,-0.6535688238130284,-0.7,1,349.0,760.0,1.0,671.0,1,0.13209320361608468
367,367,-0.9429637180423145,-0.9,1,317.0,820.0,1.0,253.0,1,0.2394191337221797
368,368,0.2248139101685609,0.2,0,389.0,588.0,0.0,723.0,1,0.00826279002857504
369,369,-0.6145617676937707,-0.6,1,366.0,576.0,1.0,358.0,1,0.09462350540890037
370,370,-0.2750323921435236,-0.3,1,376.0,782.0,1.0,562.0,1,0.09084032608061272
371,371,-0.25969128546661335,-0.3,1,371.0,934.0,1.0,295.0,1,0.3455378550870081
372,372,-0.14223243577635358,-0.1,1,385.0,949.0,0.0,256.0,0,0.20903921307789478
373,373,0.5980356166372172,0.6,0,498.0,541.0,0.0,371.0,1,0.10111277204465186
374,374,0.65112912645126,0.7,0,269.0,650.0,0.0,291.0,1,0.33472236393202426
375,375,0.9556951001420777,1.0,0,492.0,962.0,0.0,426.0,1,0.1264546034143857
376,376,-0.1021796174797387,-0.1,1,307.0,618.0,1.0,1045.0,1,0.047987061218929976
377,377,-0.7339336095196591,-0.7,1,497.0,791.0,1.0,332.0,1,0.1203252692885386
378,378,-0.5456664472336226,-0.5,1,471.0,794.0,1.0,365.0,1,0.37238374960543913
379,379,-0.07295410778760769,-0.1,1,441.0,732.0,0.0,3017.0,0,0.15102463069640437
380,380,0.19243646644040946,0.2,0,445.0,641.0,0.0,734.0,1,0.021373084070295346
381,381,-0.6321434452811532,-0.6,1,268.0,875.0,1.0,197.0,1,0.27334644488804755
382,382,0.06676962536798015,0.1,0,321.0,973.0,0.0,1226.0,1,0.09543964157581449
383,383,-0.719136023759757,-0.7,1,288.0,673.0,1.0,359.0,1,0.032196028333242976
384,384,0.3914343492178758,0.4,0,260.0,778.0,0.0,562.0,1,0.16281660070743978
385,385,-0.15627513521638625,-0.2,1,426.0,521.0,1.0,553.0,1,0.33207495429623674
386,386,-0.26468288789132366,-0.3,1,322.0,666.0,1.0,702.0,1,0.35497630312028294
387,387,0.9321144510078767,0.9,0,253.0,838.0,0.0,319.0,1,0.3292997629349043
388,388,0.3952932710934174,0.4,0,455.0,986.0,0.0,1099.0,1,0.08276896764002051
389,389,-0.3341635960857927,-0.3,1,338.0,528.0,1.0,504.0,1,0.3069652699221602
390,390,-0.4788308064674991,-0.5,1,484.0,644.0,1.0,212.0,1,0.31942882404505635
391,391,-0.4760419584868467,-0.5,1,258.0,734.0,1.0,1138.0,1,0.26899746055837304
392,392,0.4776316085854313,0.5,0,457.0,592.0,0.0,371.0,1,0.2883187965474892
393,393,0.16238979019398347,0.2,0,322.0,634.0,0.0,544.0,1,0.3648660336013583
394,394,0.9344722553797005,0.9,0,399.0,636.0,0.0,185.0,1,0.2718203229578749
395,395,0.061857173418857325,0.1,0,470.0,556.0,0.0,1674.0,1,0.14262630079905395
396,396,0.9431844525562212,0.9,0,437.0,665.0,0.0,238.0,1,0.15183761596586376
397,397,0.5303622401954136,0.5,0,414.0,753.0,0.0,243.0,1,0.0730937415181535
398,398,0.29200048301785086,0.3,0,367.0,845.0,0.0,628.0,1,0.07448250899334607
399,399,0.03846520313790225,0.0,0,466.0,786.0,1.0,3078.0,0,0.39398517056403926
400,400,-0.9220307702755406,-0.9,1,411.0,907.0,1.0,312.0,1,0.2891021220961015
401,401,0.8971497180087253,0.9,0,347.0,932.0,0.0,251.0,1,0.3401891753772892
402,402,0.7268121419411431,0.7,0,435.0,721.0,0.0,314.0,1,0.07517939559776612
403,403,0.1303883954210674,0.1,0,493.0,708.0,0.0,1389.0,1,0.1241496496358189
404,404,0.7876465859981967,0.8,0,268.0,976.0,0.0,416.0,1,0.10538478021965614
405,405,0.14469315205246103,0.1,0,351.0,630.0,0.0,379.0,1,0.37237081586014864
406,406,0.9737799121805819,1.0,0,318.0,617.0,0.0,155.0,1,0.34425566173227695
407,407,0.7013923159102087,0.7,0,326.0,646.0,0.0,358.0,1,0.007357800664108006
408,408,-0.6857511772303682,-0.7,1,361.0,768.0,1.0,461.0,1,0.06304546982751828
409,409,-0.9039628938415643,-0.9,1,423.0,857.0,1.0,470.0,1,0.33235245772534905
410,410,-0.9739099348174898,-1.0,1,372.0,961.0,1.0,317.0,1,0.2808719161918667
411,411,-0.020726844301332648,-0.0,1,309.0,558.0,0.0,513.0,0,0.07179242646506677
412,412,-0.9989115193216493,-1.0,1,444.0,867.0,1.0,189.0,1,0.304290656916584
413,413,0.24848647679674674,0.2,0,490.0,552.0,0.0,288.0,1,0.056896490507260956
414,414,0.7666144908906938,0.8,0,258.0,898.0,0.0,194.0,1,0.24790845971505499
415,415,-0.6827437622710235,-0.7,1,412.0,587.0,1.0,251.0,1,0.3710807543192691
416,416,-0.8416878932638656,-0.8,1,497.0,636.0,1.0,337.0,1,0.0800423827090691
417,417,0.23888571214454912,0.2,0,421.0,768.0,0.0,491.0,1,0.09105585177656748
418,418,-0.820970215200995,-0.8,1,283.0,716.0,1.0,291.0,1,0.23338857982620295
419,419,-0.5272347016398318,-0.5,1,480.0,822.0,1.0,428.0,1,0.030816145373642148
420,420,0.2548704344194648,0.3,0,478.0,560.0,0.0,552.0,1,0.015413140655330438
421,421,0.0785950276502041,0.1,0,398.0,639.0,0.0,1133.0,1,0.10223572838572609
422,422,-0.46466964964900836,-0.5,1,269.0,719.0,1.0,382.0,1,0.21781905603216167
423,423,0.1271735446942004,0.1,0,306.0,756.0,1.0,678.0,0,0.18869663246852997
424,424,-0.5681676360185961,-0.6,1,456.0,877.0,1.0,227.0,1,0.23060156853194363
425,425,0.6651702077896324,0.7,0,461.0,842.0,0.0,677.0,1,0.2468963561773494
426,426,-0.7228428146077208,-0.7,1,428.0,910.0,1.0,262.0,1,0.14652745632242659
427,427,-0.9368241730758824,-0.9,1,292.0,609.0,1.0,269.0,1,0.017721174871758595
428,428,0.8855323349724407,0.9,0,472.0,944.0,0.0,244.0,1,0.18297932876129824
429,429,0.38219787258586524,0.4,0,287.0,837.0,0.0,316.0,1,0.21844917628698424
430,430,-0.03438049841800561,-0.0,1,477.0,528.0,0.0,1225.0,0,0.10421388696037562
431,431,0.3470983240922201,0.3,0,486.0,859.0,0.0,655.0,1,0.15400849396928395
432,432,-0.13284962363945407,-0.1,1,419.0,550.0,1.0,2861.0,1,0.038276314006484395
433,433,0.3020780023556531,0.3,0,336.0,711.0,0.0,443.0,1,0.39453754817047
434,434,-0.33038664986823707,-0.3,1,321.0,919.0,1.0,620.0,1,0.1478051777363111
435,435,0.37511289497151323,0.4,0,480.0,619.0,0.0,171.0,1,0.3140343698619842
436,436,-0.5851816156177858,-0.6,1,320.0,909.0,1.0,1061.0,1,0.19095921335388893
437,437,0.9451914857075052,0.9,0,413.0,985.0,0.0,252.0,1,0.08452215319473605
438,438,0.6578609892213105,0.7,0,290.0,572.0,0.0,218.0,1,0.25123624167556796
439,439,-0.8934147856927397,-0.9,1,429.0,999.0,1.0,292.0,1,0.02791915017650113
440,440,-0.131410636208253,-0.1,1,320.0,799.0,1.0,211.0,1,0.06103012277786593
441,441,0.7924622031083115,0.8,0,453.0,842.0,0.0,455.0,1,0.07584017803053573
442,442,0.0719614922003613,0.1,0,420.0,640.0,1.0,280.0,0,0.24729060579610157
443,443,0.7036154040115559,0.7,0,336.0,958.0,0.0,216.0,1,0.1844698146545941
444,444,-0.4962703406379061,-0.5,1,432.0,634.0,1.0,874.0,1,0.37057636359017015
445,445,0.5404855134000226,0.5,0,258.0,978.0,0.0,404.0,1,0.3476240927047678
446,446,0.913990518287723,0.9,0,260.0,714.0,0.0,246.0,1,0.18374867574042508
447,447,0.5210693787214213,0.5,0,342.0,695.0,0.0,243.0,1,0.27064258231423216
448,448,-0.9252107956420019,-0.9,1,386.0,991.0,1.0,313.0,1,0.14532938328265263
449,449,0.4382856720811177,0.4,0,292.0,576.0,0.0,502.0,1,0.006004207637107229
450,450,0.9695204099786376,1.0,0,434.0,659.0,0.0,97.0,1,0.39497102803275475
451,451,0.9463163798038425,0.9,0,308.0,557.0,0.0,215.0,1,0.31405220926286104
452,452,0.719909111940833,0.7,0,422.0,968.0,0.0,350.0,1,0.11647382461985961
453,453,-0.23070053428407777,-0.2,1,344.0,729.0,1.0,837.0,1,0.2689070431621208
454,454,-0.74971558312718,-0.7,1,408.0,910.0,1.0,512.0,1,0.16938752990865466
455,455,-0.5636770887096338,-0.6,1,266.0,931.0,1.0,313.0,1,0.04429607044202286
456,456,0.15336844832048802,0.2,0,268.0,967.0,0.0,455.0,1,0.3852195945934553
457,457,0.43933782392894805,0.4,0,447.0,691.0,0.0,402.0,1,0.2556948031529906
458,458,0.13589732687006295,0.1,0,250.0,698.0,0.0,2012.0,1,0.3852701133613974
459,459,-0.8716087730793809,-0.9,1,333.0,693.0,1.0,294.0,1,0.39564696437190255
460,460,-0.4853326224700718,-0.5,1,280.0,682.0,1.0,338.0,1,0.21245585276581994
461,461,0.8141457125224858,0.8,0,262.0,701.0,0.0,267.0,1,0.16748022820136962
462,462,-0.007242337052516534,-0.0,1,420.0,740.0,0.0,1060.0,0,0.229779860727311
463,463,-0.5874468918978009,-0.6,1,459.0,559.0,1.0,492.0,1,0.22765432725234108
464,464,0.1985175300598554,0.2,0,337.0,513.0,0.0,660.0,1,0.2432365883846714
465,465,-0.26670789218327373,-0.3,1,449.0,642.0,1.0,489.0,1,0.09660714134765601
466,466,0.6868799333001849,0.7,0,297.0,809.0,0.0,234.0,1,0.23605974005259053
467,467,-0.44121507408333227,-0.4,1,440.0,699.0,0.0,-209.0,0,0.28656958489529366
468,468,-0.8632990809352192,-0.9,1,336.0,730.0,1.0,304.0,1,0.06510810478453544
469,469,0.766256110431808,0.8,0,312.0,873.0,0.0,275.0,1,0.24786067103955298
470,470,0.720476227576019,0.7,0,408.0,763.0,0.0,329.0,1,0.37399585491947995
471,471,0.057433451024862414,0.1,0,358.0,643.0,0.0,589.0,1,0.09906786787410336
472,472,0.6625482217978405,0.7,0,344.0,930.0,0.0,246.0,1,0.23316530046136488
473,473,0.2943915169990343,0.3,0,304.0,588.0,0.0,198.0,1,0.3061373795002835
474,474,0.14255218393079727,0.1,0,481.0,895.0,0.0,344.0,1,0.26893266868798416
475,475,0.4699180990766456,0.5,0,372.0,846.0,0.0,512.0,1,0.29225728974328996
476,476,-0.3305818908520781,-0.3,1,325.0,663.0,1.0,422.0,1,0.3360884743700929
477,477,-0.11448592330176477,-0.1,1,471.0,952.0,1.0,1017.0,1,0.347671520506456
478,478,-0.36425557064100866,-0.4,1,265.0,905.0,1.0,300.0,1,0.047166283697756356
479,479,0.9049768765315405,0.9,0,434.0,928.0,0.0,348.0,1,0.3945615169951753
480,480,0.038402441668226706,0.0,0,346.0,773.0,0.0,701.0,1,0.21685557081241014
481,481,-0.9643996574891407,-1.0,1,412.0,872.0,1.0,286.0,1,0.2531366094968636
482,482,-0.5244941761718995,-0.5,1,353.0,719.0,1.0,238.0,1,0.35185681325856477
483,483,0.07871245505950508,0.1,0,373.0,850.0,1.0,607.0,0,0.019077887426134102
484,484,-0.02234004809832668,-0.0,1,491.0,889.0,1.0,1600.0,1,0.021994355696749058
485,485,-0.014466514943332953,-0.0,1,489.0,579.0,1.0,612.0,1,0.2872300445095831
486,486,0.8425681755396952,0.8,0,426.0,807.0,0.0,437.0,1,0.11687507114527405
487,487,0.4219390941919847,0.4,0,494.0,948.0,0.0,598.0,1,0.1922015304269612
488,488,0.15130744581706734,0.2,0,254.0,906.0,0.0,530.0,1,0.0005243551125166057
489,489,0.6660441900127194,0.7,0,462.0,758.0,0.0,240.0,1,0.053258592222034065
490,490,0.8680985439240567,0.9,0,456.0,522.0,0.0,542.0,1,0.34327071423733446
491,491,0.3131257480208893,0.3,0,361.0,601.0,0.0,488.0,1,0.2984199599549215
492,492,0.19025853365869705,0.2,0,313.0,683.0,0.0,404.0,1,0.23386961008207183
493,493,-0.7407128205098517,-0.7,1,472.0,522.0,1.0,256.0,1,0.13672022249001856
494,494,0.5284177154356438,0.5,0,358.0,913.0,0.0,219.0,1,0.38257580181063167
495,495,0.5194809906986351,0.5,0,300.0,715.0,0.0,645.0,1,0.35750366642264964
496,496,0.5786133819188868,0.6,0,321.0,686.0,0.0,823.0,1,0.2823440066378185
497,497,-0.9034933839728696,-0.9,1,305.0,767.0,1.0,258.0,1,0.3450407372664672
498,498,-0.26315564581175654,-0.3,1,392.0,628.0,1.0,250.0,1,0.10113825853589585
499,499,0.2098886722124882,0.2,0,478.0,721.0,0.0,761.0,1,0.2731960219814789
500,500,-0.3351004220761278,-0.3,1,336.0,972.0,1.0,1072.0,1,0.2566963138904862
501,501,-0.4084873343993345,-0.4,1,390.0,608.0,1.0,452.0,1,0.04108050848003986
502,502,0.21423077374973643,0.2,0,433.0,938.0,0.0,399.0,1,0.258006523244851
503,503,0.1078475567760373,0.1,0,314.0,848.0,0.0,998.0,1,0.14213564714913662
504,504,0.10145263045921027,0.1,0,365.0,817.0,0.0,2658.0,1,0.1161832211753668
505,505,-0.1303683319339073,-0.1,1,295.0,562.0,1.0,723.0,1,0.13576111751998332
506,506,0.7520101132830996,0.8,0,369.0,851.0,0.0,560.0,1,0.10356285267678755
507,507,-0.07717398244633444,-0.1,1,366.0,934.0,1.0,700.0,1,0.3809499916881465
508,508,-0.6489828613301085,-0.6,1,345.0,839.0,0.0,176.0,0,0.3374556275685842
509,509,0.6999471177825916,0.7,0,299.0,525.0,0.0,396.0,1,0.36842051114866714
510,510,0.5636341774086258,0.6,0,465.0,787.0,0.0,638.0,1,0.11104534297794695
511,511,-0.7203827313776305,-0.7,1,265.0,614.0,1.0,381.0,1,0.28016402774385435
512,512,0.2916184946200351,0.3,0,346.0,512.0,0.0,1122.0,1,0.014910531532081661
513,513,-0.48659052298314953,-0.5,1,423.0,608.0,1.0,559.0,1,0.16691383661842632
514,514,-0.14931211603071115,-0.1,1,282.0,696.0,1.0,522.0,1,0.07994075443573348
515,515,0.6156051696813016,0.6,0,260.0,649.0,0.0,291.0,1,0.20774983947640668
516,516,-0.154826127158342,-0.2,1,379.0,996.0,1.0,515.0,1,0.11959035437840689
517,517,-0.4383867585855592,-0.4,1,495.0,669.0,1.0,986.0,1,0.05347520014308547
518,518,-0.9637794129123243,-1.0,1,364.0,570.0,1.0,976.0,1,0.2476527237531317
519,519,0.5470063746122813,0.5,0,297.0,938.0,0.0,285.0,1,0.3844673775420437
520,520,0.7211131016279526,0.7,0,347.0,648.0,0.0,515.0,1,0.1789412519718462
521,521,-0.9343159237120688,-0.9,1,397.0,659.0,1.0,234.0,1,0.263928668279868
522,522,0.2226282605962877,0.2,0,374.0,842.0,0.0,654.0,1,0.045775001129279375
523,523,0.3327335096997397,0.3,0,368.0,540.0,0.0,192.0,1,0.35797052539090957
524,524,-0.7608202966393438,-0.8,1,428.0,849.0,1.0,403.0,1,0.27316728998051165
525,525,-0.2505622171083106,-0.3,1,427.0,872.0,1.0,491.0,1,0.03531989009142866
526,526,-0.983357835981687,-1.0,1,415.0,564.0,1.0,241.0,1,0.026098994411017887
527,527,0.28921389210651327,0.3,0,401.0,613.0,0.0,1046.0,1,0.3681304659387721
528,528,-0.5893898839016238,-0.6,1,326.0,930.0,1.0,324.0,1,0.0737238709158838
529,529,-0.3643455451161124,-0.4,1,412.0,823.0,1.0,1095.0,1,0.15600159121684937
530,530,0.8244509539988998,0.8,0,346.0,642.0,0.0,152.0,1,0.3855859539837468
531,531,0.6748265701334089,0.7,0,268.0,764.0,0.0,378.0,1,0.23908155792130592
532,532,-0.8354681671265975,-0.8,1,440.0,976.0,1.0,424.0,1,0.33581186875001323
533,533,-0.7343552536260829,-0.7,1,351.0,598.0,1.0,341.0,1,0.37300752203883836
534,534,-0.07773455248798533,-0.1,1,301.0,875.0,1.0,324.0,1,0.06134938119013507
535,535,0.5704618399881185,0.6,0,389.0,747.0,0.0,334.0,1,0.297800360223474
536,536,-0.8666146703164672,-0.9,1,469.0,717.0,1.0,154.0,1,0.0382535361494504
537,537,-0.6215617087897218,-0.6,1,464.0,789.0,1.0,227.0,1,0.2083960462929862
538,538,-0.5395830213884356,-0.5,1,271.0,502.0,1.0,347.0,1,0.3564846256263352
539,539,-0.7414865295050819,-0.7,1,442.0,962.0,1.0,536.0,1,0.18862335782901307
540,540,-0.3156020729705342,-0.3,1,437.0,966.0,1.0,397.0,1,0.004701078959204486
541,541,0.4684452663256957,0.5,0,425.0,643.0,0.0,462.0,1,0.043256812682448235
542,542,-0.36013180601965256,-0.4,1,457.0,642.0,1.0,491.0,1,0.061018751588149026
543,543,0.9393646859939264,0.9,0,435.0,649.0,0.0,216.0,1,0.07346725938243277
544,544,0.7176081377458412,0.7,0,374.0,976.0,0.0,200.0,1,0.11973105766618315
545,545,0.9745264088810579,1.0,0,348.0,786.0,0.0,266.0,1,0.11123767178216469
546,546,-0.6904309125929948,-0.7,1,453.0,848.0,1.0,839.0,1,0.2191360044979096
547,547,-0.7771616633935199,-0.8,1,289.0,562.0,1.0,589.0,1,0.24023444871113228
548,548,0.380495411169425,0.4,0,424.0,585.0,0.0,461.0,1,0.11008434831123788
549,549,0.8285082432222757,0.8,0,331.0,948.0,0.0,281.0,1,0.1774167236032338
550,550,-0.15143077368769609,-0.2,1,262.0,690.0,1.0,378.0,1,0.2972990890170743
551,551,0.7062444289784122,0.7,0,322.0,812.0,0.0,206.0,1,0.2238866573423251
552,552,-0.42600155276753027,-0.4,1,261.0,832.0,1.0,527.0,1,0.25644703366538607
553,553,-0.8935253059586525,-0.9,1,300.0,958.0,1.0,492.0,1,0.12830520881147076
554,554,0.6768473761477944,0.7,0,399.0,799.0,0.0,222.0,1,0.26444452557608294
555,555,0.7671974204411764,0.8,0,373.0,761.0,0.0,306.0,1,0.2306083770132763
556,556,0.5056233053979269,0.5,0,345.0,615.0,0.0,140.0,1,0.19281043740206827
557,557,-0.3663239296912961,-0.4,1,368.0,927.0,1.0,345.0,1,0.3576112057400504
558,558,-0.5140402504939174,-0.5,1,411.0,877.0,1.0,372.0,1,0.030207803846906245
559,559,0.02373875650118351,0.0,0,375.0,590.0,1.0,525.0,0,0.10154263748899442
560,560,0.026021237875074155,0.0,0,396.0,968.0,1.0,926.0,0,0.3196104741181903
561,561,0.26538068602479736,0.3,0,407.0,936.0,0.0,397.0,1,0.282828978217056
562,562,0.5009509161631258,0.5,0,440.0,522.0,0.0,198.0,1,0.376799744923239
563,563,-0.6065855991948383,-0.6,1,324.0,812.0,1.0,534.0,1,0.1818502090328678
564,564,0.5294341403507714,0.5,0,273.0,646.0,0.0,601.0,1,0.30283115714643927
565,565,0.7535535228563754,0.8,0,347.0,997.0,0.0,286.0,1,0.3836249375928708
566,566,-0.7086211492370544,-0.7,1,424.0,645.0,1.0,411.0,1,0.028655390981547194
567,567,-0.4804870357800395,-0.5,1,459.0,554.0,1.0,377.0,1,0.23320165352860622
568,568,-0.8957571611059272,-0.9,1,410.0,647.0,1.0,403.0,1,0.3957340154895485
569,569,-0.5635276951509607,-0.6,1,412.0,906.0,1.0,302.0,1,0.328776487292642
570,570,-0.8898919004708286,-0.9,1,495.0,993.0,1.0,1022.0,1,0.3001406001084992
571,571,-0.21425417063705376,-0.2,1,250.0,891.0,1.0,509.0,1,0.08710601648037618
572,572,-0.853982782504519,-0.9,1,311.0,822.0,1.0,307.0,1,0.2325019688415546
573,573,0.04108038980828188,0.0,0,465.0,590.0,0.0,545.0,1,0.22940328333171545
574,574,0.11012019801454054,0.1,0,288.0,644.0,0.0,398.0,1,0.28291301626676074
575,575,-0.5523608195915242,-0.6,1,412.0,796.0,1.0,592.0,1,0.0389932571958477
576,576,-0.6341908470879662,-0.6,1,485.0,585.0,1.0,440.0,1,0.12230793788845942
577,577,0.1011911540421484,0.1,0,443.0,510.0,0.0,2377.0,1,0.23179657095370818
578,578,0.7945255327698644,0.8,0,267.0,609.0,0.0,94.0,1,0.3043901789202148
579,579,-0.49693002402313025,-0.5,1,408.0,575.0,1.0,447.0,1,0.11506519873073656
580,580,-0.8990949234876462,-0.9,1,485.0,964.0,1.0,421.0,1,0.183929212797067
581,581,0.8852499319332832,0.9,0,306.0,580.0,0.0,254.0,1,0.07057076046648665
582,582,-0.5153038165182036,-0.5,1,485.0,876.0,1.0,289.0,1,0.28756618485764057
583,583,0.7318004658447412,0.7,0,449.0,588.0,0.0,523.0,1,0.035993200718024455
584,584,-0.6477146306063284,-0.6,1,363.0,914.0,1.0,303.0,1,0.2829463315627083
585,585,-0.2977350746286138,-0.3,1,411.0,805.0,1.0,954.0,1,0.11270218216729361
586,586,-0.8982517591900276,-0.9,1,286.0,991.0,1.0,193.0,1,0.17347541910502234
587,587,-0.28081388637028804,-0.3,1,430.0,571.0,1.0,989.0,1,0.23261470321068153
588,588,0.014221744296510686,0.0,0,370.0,591.0,0.0,1679.0,1,0.341028230832267
589,589,0.140895582728378,0.1,0,259.0,821.0,0.0,640.0,1,0.2912776457536958
590,590,-0.5246894383411811,-0.5,1,404.0,793.0,1.0,703.0,1,0.07325792258361404
591,591,-0.32729784860366107,-0.3,1,392.0,745.0,1.0,313.0,1,0.05421807987934044
592,592,-0.08170340600195125,-0.1,1,474.0,826.0,0.0,700.0,0,0.3042228393981414
593,593,0.42399871108939835,0.4,0,448.0,512.0,0.0,590.0,1,0.3339089705255043
594,594,0.6187456960454063,0.6,0,265.0,667.0,0.0,308.0,1,0.005968571158059133
595,595,0.8643182437511479,0.9,0,483.0,668.0,0.0,189.0,1,0.11047761844013798
596,596,0.33523047798304306,0.3,0,344.0,943.0,0.0,573.0,1,0.12934554974282605
597,597,0.022057543589905082,0.0,0,369.0,549.0,0.0,3952.0,1,0.3350679513896628
598,598,0.8375422929491962,0.8,0,341.0,882.0,0.0,267.0,1,0.18018579995129824
599,599,-0.8207033450164805,-0.8,1,462.0,905.0,1.0,213.0,1,0.12308458208668904
600,600,-0.4375344416987934,-0.4,1,458.0,997.0,1.0,415.0,1,0.16848714907400664
601,601,-0.5897092942126689,-0.6,1,329.0,675.0,1.0,666.0,1,0.2811724071105187
602,602,0.3577249851210136,0.4,0,300.0,859.0,0.0,601.0,1,0.1322625746138759
603,603,0.7471485543924614,0.7,0,380.0,858.0,0.0,502.0,1,0.1350056444348632
604,604,0.712920988775444,0.7,0,358.0,882.0,0.0,300.0,1,0.15062044695478083
605,605,0.15776304212737968,0.2,0,470.0,693.0,0.0,737.0,1,0.15720609403044106
606,606,0.1724991111853229,0.2,0,478.0,664.0,0.0,518.0,1,0.3817099504946484
607,607,0.2910113330943138,0.3,0,445.0,662.0,0.0,453.0,1,0.14866940748821073
608,608,0.5910185919599391,0.6,0,485.0,648.0,0.0,277.0,1,0.24726869261936166
609,609,-0.8744809691503364,-0.9,1,409.0,714.0,1.0,237.0,1,0.24148309199611215
610,610,-0.5458396885073087,-0.5,1,456.0,803.0,1.0,351.0,1,0.018066333377241107
611,611,0.08793379827887282,0.1,0,251.0,982.0,0.0,467.0,1,0.24363002771589867
612,612,-0.9183635481193808,-0.9,1,493.0,594.0,1.0,393.0,1,0.18022535765527725
613,613,-0.4445176650507421,-0.4,1,463.0,824.0,1.0,483.0,1,0.24300466481121472
614,614,-0.15988397629968576,-0.2,1,436.0,938.0,1.0,706.0,1,0.3258157764288171
615,615,-0.9993683071663977,-1.0,1,338.0,715.0,1.0,377.0,1,0.19021048988795874
616,616,-0.7597695947306176,-0.8,1,447.0,950.0,1.0,193.0,1,0.20329068339250447
617,617,0.8802541057031765,0.9,0,335.0,553.0,0.0,392.0,1,0.2715560701523842
618,618,-0.042444264065889525,-0.0,1,422.0,909.0,1.0,239.0,1,0.25760893195332263
619,619,-0.1460048362924944,-0.1,1,269.0,732.0,0.0,739.0,0,0.2886867847054508
620,620,-0.22566746747057032,-0.2,1,450.0,512.0,1.0,268.0,1,0.3996476996054314
621,621,-0.24794559892128687,-0.2,1,311.0,506.0,1.0,273.0,1,0.18375702703994323
622,622,0.6988072418073732,0.7,0,464.0,955.0,0.0,311.0,1,0.3096342649012085
623,623,-0.4297063097556473,-0.4,1,480.0,738.0,1.0,512.0,1,0.002033625688374574
624,624,0.5365529980667563,0.5,0,389.0,937.0,0.0,504.0,1,0.014236210990956934
625,625,0.5837824446066873,0.6,0,444.0,525.0,0.0,361.0,1,0.23848785527614558
626,626,0.09369382647265523,0.1,0,396.0,792.0,0.0,572.0,1,0.13419947691176085
627,627,0.8279825185359819,0.8,0,302.0,623.0,0.0,195.0,1,0.23341521717250002
628,628,0.11523322522617918,0.1,0,423.0,531.0,0.0,1786.0,1,0.3514612859774869
629,629,-0.1550625437515576,-0.2,1,438.0,703.0,1.0,329.0,1,0.14919775698135443
630,630,0.17098760590046092,0.2,0,402.0,760.0,0.0,378.0,1,0.07958380148273916
631,631,-0.3307231277004079,-0.3,1,462.0,759.0,1.0,479.0,1,0.3767821221930439
632,632,0.1725211925565393,0.2,0,265.0,963.0,0.0,602.0,1,0.2614437338435178
633,633,-0.2533735379863342,-0.3,1,378.0,500.0,1.0,562.0,1,0.0034618668528334064
634,634,0.2800742580117459,0.3,0,309.0,939.0,0.0,362.0,1,0.24706236990683925
635,635,-0.2717239388404502,-0.3,1,385.0,975.0,1.0,300.0,1,0.04346481179818547
636,636,0.35245989300802893,0.4,0,259.0,904.0,0.0,467.0,1,0.0671321184632594
637,637,0.4607117763596875,0.5,0,455.0,572.0,0.0,303.0,1,0.08276287835048657
638,638,-0.6025945043487841,-0.6,1,404.0,577.0,1.0,329.0,1,0.28264704769224824
639,639,0.3853885345602708,0.4,0,273.0,721.0,0.0,1286.0,1,0.04033667151076736
640,640,-0.6657507060280874,-0.7,1,411.0,630.0,1.0,469.0,1,0.3204650686371513
641,641,0.16594793406906128,0.2,0,491.0,706.0,0.0,583.0,1,0.1046149957323061
642,642,0.2566651180180266,0.3,0,345.0,652.0,0.0,903.0,1,0.28439055781153905
643,643,0.8063223250587879,0.8,0,420.0,842.0,0.0,168.0,1,0.14625428823869632
644,644,-0.7221938611338734,-0.7,1,325.0,743.0,1.0,372.0,1,0.2940540101601426
645,645,-0.6654415698543472,-0.7,1,272.0,993.0,1.0,645.0,1,0.30517477246844904
646,646,0.057118840496587664,0.1,0,485.0,543.0,0.0,482.0,1,0.058266726010542946
647,647,0.3114231526885407,0.3,0,310.0,838.0,0.0,452.0,1,0.2528397116163747
648,648,-0.6660917305975349,-0.7,1,289.0,589.0,1.0,252.0,1,0.26216647303299306
649,649,-0.528507560733865,-0.5,1,496.0,756.0,1.0,518.0,1,0.37919894756457123
650,650,-0.05771049700884734,-0.1,1,374.0,923.0,1.0,633.0,1,0.3770305342795097
651,651,0.02665914695447169,0.0,0,335.0,948.0,0.0,257.0,1,0.23140231189492
652,652,-0.3754491398191322,-0.4,1,360.0,517.0,1.0,183.0,1,0.21892445538185978
653,653,-0.3563472004820636,-0.4,1,497.0,956.0,1.0,577.0,1,0.09277604902672248
654,654,-0.5451638789862931,-0.5,1,371.0,616.0,1.0,423.0,1,0.3663328520120903
655,655,0.30401292555511494,0.3,0,461.0,990.0,0.0,469.0,1,0.2945600086646333
656,656,0.6647627084701,0.7,0,258.0,655.0,0.0,497.0,1,0.11584295452222318
657,657,-0.2946963845351045,-0.3,1,369.0,532.0,1.0,539.0,1,0.32676111746295
658,658,0.6931462373867325,0.7,0,273.0,649.0,0.0,728.0,1,0.13656519739222772
659,659,-0.010146677492572698,-0.0,1,276.0,750.0,1.0,814.0,1,0.13376102611058208
660,660,-0.990773739281779,-1.0,1,266.0,651.0,1.0,273.0,1,0.3612792630821053
661,661,-0.766915908941251,-0.8,1,411.0,662.0,1.0,407.0,1,0.0017581000638660972
662,662,-0.32039304576985317,-0.3,1,478.0,870.0,1.0,722.0,1,0.16347411383424637
663,663,0.48941738843362903,0.5,0,363.0,732.0,0.0,445.0,1,0.16153725073269892
664,664,-0.10756863530208172,-0.1,1,288.0,931.0,1.0,431.0,1,0.09105478248051053
665,665,0.975337276276184,1.0,0,467.0,840.0,0.0,123.0,1,0.3465775352296726
666,666,-0.6849445805851841,-0.7,1,492.0,545.0,1.0,213.0,1,0.38468660836522917
667,667,0.7839786147496133,0.8,0,253.0,964.0,0.0,263.0,1,0.38230073628541367
668,668,0.023169073969250054,0.0,0,414.0,965.0,1.0,1601.0,0,0.053320330441762966
669,669,-0.13639188354508747,-0.1,1,400.0,857.0,1.0,213.0,1,0.3148937786286788
670,670,0.022707051423149327,0.0,0,287.0,666.0,0.0,1997.0,1,0.24605162737082087
671,671,-0.9392236457604721,-0.9,1,279.0,618.0,1.0,383.0,1,0.12180686000303442
672,672,0.6514353698328053,0.7,0,470.0,757.0,0.0,363.0,1,0.05050912058575672
673,673,-0.7675520461926351,-0.8,1,312.0,917.0,1.0,241.0,1,0.25565915151263935
674,674,0.48556383884225385,0.5,0,359.0,503.0,0.0,208.0,1,0.18678229520400924
675,675,-0.6814706860050501,-0.7,1,356.0,760.0,1.0,274.0,1,0.15207309933431978
676,676,0.17979483305259225,0.2,0,362.0,794.0,0.0,374.0,1,0.20529848953313976
677,677,0.08394753180396108,0.1,0,371.0,929.0,1.0,450.0,0,0.3475189577887613
678,678,-0.5794130460367606,-0.6,1,321.0,834.0,1.0,435.0,1,0.16354360635657145
679,679,-0.04866332861893974,-0.0,1,447.0,773.0,0.0,1210.0,0,0.24894218299033347
680,680,0.9192627135883671,0.9,0,359.0,802.0,0.0,239.0,1,0.2304674180765312
681,681,-0.5049401335264239,-0.5,1,294.0,635.0,1.0,981.0,1,0.3313200995593024
682,682,0.567112558871355,0.6,0,252.0,920.0,0.0,118.0,1,0.3055196783652074
683,683,0.9157794431343727,0.9,0,370.0,864.0,0.0,216.0,1,0.3682240890588491
684,684,0.05487130006556762,0.1,0,453.0,818.0,1.0,629.0,0,0.17472452449612905
685,685,-0.05538350684398319,-0.1,1,463.0,991.0,0.0,396.0,0,0.052318905313409485
686,686,0.7513030949253188,0.8,0,409.0,623.0,0.0,408.0,1,0.13488697145333736
687,687,0.9538552787388956,1.0,0,481.0,695.0,0.0,234.0,1,0.3473824506696285
688,688,0.8336512717817921,0.8,0,425.0,701.0,0.0,234.0,1,0.02438173990095782
689,689,0.37982797649428934,0.4,0,273.0,878.0,1.0,589.0,0,0.13979970595637314
690,690,0.27218954008128815,0.3,0,478.0,863.0,0.0,439.0,1,0.26444408085316057
691,691,-0.6546768538011374,-0.7,1,305.0,689.0,1.0,256.0,1,0.1663560913636372
692,692,-0.07193661513500005,-0.1,1,442.0,610.0,1.0,938.0,1,0.08414700072033204
693,693,-0.6241050063785636,-0.6,1,310.0,930.0,1.0,1030.0,1,0.3085512283173664
694,694,-0.5533838998447154,-0.6,1,368.0,707.0,1.0,315.0,1,0.25236348665012803
695,695,0.8301646843536705,0.8,0,278.0,591.0,0.0,101.0,1,0.3597467397766802
696,696,-0.6008309369888598,-0.6,1,358.0,801.0,1.0,441.0,1,0.151427483524244
697,697,0.5135093621488431,0.5,0,407.0,668.0,0.0,395.0,1,0.39025066235532746
698,698,-0.3271073348384561,-0.3,1,428.0,634.0,1.0,368.0,1,0.049666243192245975
699,699,-0.4105034008272672,-0.4,1,441.0,840.0,1.0,379.0,1,0.00033049236641571336
700,700,-0.1531008368025799,-0.2,1,355.0,973.0,1.0,822.0,1,0.11326480526178627
701,701,-0.8938182763367759,-0.9,1,287.0,654.0,1.0,289.0,1,0.2637240059293687
702,702,-0.059617916151287975,-0.1,1,494.0,703.0,1.0,663.0,1,0.16328842279726993
703,703,-0.5917398642887048,-0.6,1,435.0,921.0,1.0,224.0,1,0.1998142135032721
704,704,-0.47210299879226336,-0.5,1,365.0,653.0,1.0,402.0,1,0.1346235795187228
705,705,-0.24669537060963576,-0.2,1,453.0,820.0,1.0,807.0,1,0.32367205861951875
706,706,0.9539156897213454,1.0,0,491.0,966.0,0.0,253.0,1,0.04943713651170545
707,707,0.35756664372502045,0.4,0,269.0,661.0,0.0,490.0,1,0.0739994361100937
708,708,-0.3414345410648143,-0.3,1,372.0,645.0,1.0,233.0,1,0.18045924564615562
709,709,-0.38507702757663065,-0.4,1,413.0,843.0,1.0,464.0,1,0.039297960926886866
710,710,0.9980416613282002,1.0,0,259.0,727.0,0.0,264.0,1,0.011001533962536182
711,711,0.6482970989223127,0.6,0,385.0,881.0,0.0,384.0,1,0.23729632653503271
712,712,0.4297238130708827,0.4,0,459.0,940.0,0.0,171.0,1,0.3568174485382294
713,713,0.33990020378192054,0.3,0,307.0,952.0,0.0,451.0,1,0.14319310402037275
714,714,-0.2777782972200573,-0.3,1,404.0,839.0,1.0,767.0,1,0.2574047999833509
715,715,0.8455162223602941,0.8,0,404.0,881.0,0.0,485.0,1,0.3433462772031803
716,716,0.6552140465047374,0.7,0,484.0,887.0,0.0,359.0,1,0.17378953145386988
717,717,0.04864768386718543,0.0,0,270.0,840.0,1.0,310.0,0,0.32451412514309447
718,718,-0.47456401825168126,-0.5,1,290.0,779.0,1.0,461.0,1,0.2687588001765457
719,719,0.2635027926214153,0.3,0,338.0,991.0,0.0,641.0,1,0.33743511572513374
720,720,-0.5326227427467185,-0.5,1,288.0,838.0,1.0,264.0,1,0.14628802794726897
721,721,0.9103768365319547,0.9,0,484.0,777.0,0.0,339.0,1,0.2422296326099053
722,722,-0.9974939758728358,-1.0,1,267.0,694.0,1.0,569.0,1,0.17913647599154922
723,723,-0.8343634483596722,-0.8,1,404.0,809.0,1.0,327.0,1,0.22490588868617212
724,724,-0.6401104986602648,-0.6,1,253.0,583.0,1.0,284.0,1,0.014249359716973765
725,725,0.5368186053909687,0.5,0,364.0,887.0,0.0,239.0,1,0.37918196942993415
726,726,0.6458150928095907,0.6,0,409.0,885.0,0.0,326.0,1,0.09694047932773056
727,727,0.6316583170448511,0.6,0,445.0,838.0,0.0,327.0,1,0.18369104970187078
728,728,0.2651613783995559,0.3,0,357.0,745.0,0.0,738.0,1,0.08748107501304414
729,729,-0.45682916162075116,-0.5,1,286.0,617.0,1.0,197.0,1,0.29729590743306117
730,730,0.5619742988002487,0.6,0,399.0,851.0,0.0,230.0,1,0.3810765971569519
731,731,-0.08495281676102073,-0.1,1,425.0,520.0,1.0,1255.0,1,0.12594949443434686
732,732,-0.7599601943438223,-0.8,1,484.0,965.0,1.0,931.0,1,0.2550967953660392
733,733,0.614971420707275,0.6,0,366.0,848.0,0.0,446.0,1,0.3089362941673907
734,734,0.2917805196340657,0.3,0,458.0,563.0,0.0,799.0,1,0.23024052793244587
735,735,0.5587512824957483,0.6,0,470.0,778.0,0.0,212.0,1,0.2821945259996816
736,736,0.6328386284392833,0.6,0,411.0,926.0,0.0,263.0,1,0.031025190523279858
737,737,0.055055608111528764,0.1,0,418.0,694.0,0.0,988.0,1,0.3271473031710693
738,738,0.5158492160167365,0.5,0,362.0,871.0,0.0,307.0,1,0.26341135074589755
739,739,0.5694260151215351,0.6,0,456.0,622.0,0.0,202.0,1,0.23983320194215182
740,740,-0.5756590709267186,-0.6,1,320.0,845.0,1.0,365.0,1,0.36036885627391474
741,741,0.5462287707531195,0.5,0,348.0,790.0,0.0,832.0,1,0.3193295164058127
742,742,-0.9144001123608054,-0.9,1,418.0,551.0,1.0,311.0,1,0.2341618949865072
743,743,-0.7657283582843042,-0.8,1,414.0,613.0,1.0,253.0,1,0.3372828165324626
744,744,0.9496194560932354,0.9,0,463.0,693.0,0.0,204.0,1,0.1248246379538815
745,745,0.5745287049390189,0.6,0,412.0,779.0,0.0,499.0,1,0.32041153633191344
746,746,0.638696523840873,0.6,0,455.0,977.0,0.0,888.0,1,0.2323181159416793
747,747,-0.5821803197400466,-0.6,1,350.0,510.0,1.0,210.0,1,0.31617118964552504
748,748,0.6266852544969805,0.6,0,388.0,695.0,0.0,187.0,1,0.3729077337696231
749,749,0.9882369908172544,1.0,0,338.0,808.0,0.0,124.0,1,0.350479084287768
750,750,-0.7595631481331631,-0.8,1,499.0,615.0,1.0,426.0,1,0.006341297136863356
751,751,0.9975821508018343,1.0,0,465.0,633.0,0.0,252.0,1,0.299646898705139
752,752,-0.6190003107614397,-0.6,1,267.0,927.0,1.0,636.0,1,0.009579455029040986
753,753,0.09658436381580215,0.1,0,358.0,827.0,1.0,645.0,0,0.09384658690965259
754,754,-0.6324962514581387,-0.6,1,252.0,746.0,1.0,602.0,1,0.15116740403734444
755,755,-0.7380230236675298,-0.7,1,384.0,768.0,1.0,338.0,1,0.35853400968620347
756,756,0.272645473973832,0.3,0,392.0,770.0,0.0,1148.0,1,0.11821796051082045
757,757,0.48733195930180817,0.5,0,475.0,500.0,0.0,515.0,1,0.08593649582905193
758,758,0.9314693928833788,0.9,0,292.0,722.0,0.0,396.0,1,0.0015801178121408023
759,759,0.7226016953608527,0.7,0,359.0,608.0,0.0,343.0,1,0.057021959596531696
760,760,-0.42831229840044216,-0.4,1,471.0,546.0,1.0,623.0,1,0.15920906685079306
761,761,0.7572797736152108,0.8,0,347.0,524.0,0.0,159.0,1,0.19294212733386834
762,762,0.713801772967817,0.7,0,329.0,700.0,0.0,321.0,1,0.09926329207652618
763,763,-0.8012406697246814,-0.8,1,490.0,552.0,1.0,428.0,1,0.14071126104767462
764,764,-0.5294976135306537,-0.5,1,366.0,580.0,1.0,394.0,1,0.11397578658224533
765,765,0.060036382184865955,0.1,0,258.0,794.0,1.0,898.0,0,0.21213364093407383
766,766,0.2724327180266013,0.3,0,450.0,625.0,0.0,485.0,1,0.34514966062988284
767,767,-0.9886665168310549,-1.0,1,439.0,614.0,1.0,637.0,1,0.22771838102542674
768,768,0.500327209175891,0.5,0,439.0,931.0,0.0,270.0,1,0.3875665756368256
769,769,0.38535511139559553,0.4,0,367.0,601.0,0.0,252.0,1,0.37488008755167357
770,770,0.08781096925281928,0.1,0,335.0,623.0,1.0,422.0,0,0.31112218810677394
771,771,0.827354671780637,0.8,0,444.0,941.0,0.0,275.0,1,0.15751675880067195
772,772,0.917918360194383,0.9,0,317.0,864.0,0.0,439.0,1,0.13304720314815066
773,773,0.5660800715514733,0.6,0,429.0,870.0,0.0,561.0,1,0.3637249580636897
774,774,-0.7837274520022646,-0.8,1,288.0,842.0,1.0,240.0,1,0.06070193432830422
775,775,0.2848102229577252,0.3,0,455.0,957.0,0.0,478.0,1,0.2891646143477861
776,776,-0.6427979566749371,-0.6,1,368.0,630.0,1.0,1572.0,1,0.24584018857464307
777,777,-0.4730183593579007,-0.5,1,343.0,860.0,1.0,397.0,1,0.09651809545611752
778,778,0.9395681757530092,0.9,0,468.0,966.0,0.0,546.0,1,0.3884302567682229
779,779,0.02412299882663005,0.0,0,499.0,827.0,0.0,1044.0,1,0.04498007880801458
780,780,-0.022166490819773177,-0.0,1,276.0,586.0,1.0,608.0,1,0.23996170418912588
781,781,-0.9866014851397538,-1.0,1,393.0,835.0,1.0,452.0,1,0.003120500017843764
782,782,-0.7581886241505096,-0.8,1,345.0,980.0,1.0,285.0,1,0.13721054919313486
783,783,-0.7494623942440077,-0.7,1,477.0,708.0,1.0,935.0,1,0.3039544875713558
784,784,-0.2756636461238524,-0.3,1,469.0,600.0,1.0,441.0,1,0.19917188339557945
785,785,-0.2860598262902989,-0.3,1,351.0,572.0,1.0,577.0,1,0.3474365951415918
786,786,-0.14475145596115047,-0.1,1,369.0,730.0,1.0,791.0,1,0.19465209605670544
787,787,0.2060214726966203,0.2,0,456.0,652.0,0.0,942.0,1,0.2675053377278495
788,788,0.2703787743437187,0.3,0,392.0,857.0,0.0,711.0,1,0.3158330092873316
789,789,-0.539692800434552,-0.5,1,466.0,822.0,1.0,252.0,1,0.31483683106248606
790,790,-0.43711417836861766,-0.4,1,375.0,979.0,1.0,566.0,1,0.11775023671469081
791,791,-0.4018746526005854,-0.4,1,369.0,602.0,1.0,829.0,1,0.3449610422358816
792,792,0.661853961053718,0.7,0,475.0,553.0,0.0,612.0,1,0.19084368194624882
793,793,0.24509217852136844,0.2,0,405.0,914.0,0.0,451.0,1,0.03119071553284738
794,794,-0.5141632263978331,-0.5,1,283.0,527.0,1.0,170.0,1,0.21278674935495623
795,795,0.5807512032335294,0.6,0,279.0,556.0,0.0,195.0,1,0.2901632936679202
796,796,-0.7897170632352535,-0.8,1,414.0,799.0,1.0,417.0,1,0.1116774140819326
797,797,0.9293011163015628,0.9,0,255.0,788.0,0.0,457.0,1,0.030007122616872196
798,798,-0.4450360775296198,-0.4,1,392.0,955.0,1.0,553.0,1,0.018487714364367535
799,799,-0.08409395361237992,-0.1,1,354.0,798.0,1.0,1918.0,1,0.2490477943738242
800,800,-0.9053164958337323,-0.9,1,357.0,809.0,1.0,414.0,1,0.13052161864670886
801,801,-0.9659254281579306,-1.0,1,474.0,746.0,1.0,170.0,1,0.30326679979436194
802,802,-0.5963849152043423,-0.6,1,315.0,995.0,1.0,240.0,1,0.2328853777411616
803,803,-0.8587053416835846,-0.9,1,373.0,939.0,1.0,588.0,1,0.1254611488531072
804,804,0.44340520163993813,0.4,0,396.0,514.0,0.0,380.0,1,0.377260191787039
805,805,-0.5720907880154322,-0.6,1,446.0,741.0,1.0,273.0,1,0.03731192398299719
806,806,0.7926852962036446,0.8,0,313.0,654.0,0.0,113.0,1,0.35465652630902833
807,807,0.9114968529181093,0.9,0,307.0,724.0,0.0,359.0,1,0.16883952106982716
808,808,-0.7629277057345745,-0.8,1,338.0,995.0,1.0,287.0,1,0.24636392502382193
809,809,-0.16662578013348583,-0.2,1,337.0,885.0,1.0,968.0,1,0.3399213007308557
810,810,0.2847896629761708,0.3,0,404.0,905.0,0.0,581.0,1,0.08363096940583636
811,811,0.2672199498934884,0.3,0,390.0,960.0,0.0,220.0,1,0.3254028418976208
812,812,-0.8754698981462907,-0.9,1,373.0,862.0,1.0,615.0,1,0.3082025220379864
813,813,-0.40549860719743713,-0.4,1,286.0,856.0,1.0,898.0,1,0.09281363174369194
814,814,0.17405919202969589,0.2,0,354.0,657.0,0.0,2209.0,1,0.3960949110480786
815,815,0.723221079733317,0.7,0,442.0,572.0,0.0,246.0,1,0.32545254208370644
816,816,0.8741223797339199,0.9,0,382.0,713.0,0.0,375.0,1,0.1906017239612927
817,817,0.5617150551478263,0.6,0,447.0,980.0,0.0,253.0,1,0.19475060115634757
818,818,0.2887805336259599,0.3,0,416.0,654.0,0.0,890.0,1,0.028407807059406844
819,819,0.034809830403967235,0.0,0,475.0,626.0,1.0,979.0,0,0.3766142314042087
820,820,-0.21999735360030015,-0.2,1,413.0,852.0,1.0,665.0,1,0.39939525787308455
821,821,-0.6681440203783462,-0.7,1,463.0,657.0,1.0,310.0,1,0.16680807952733678
822,822,0.7569035880858606,0.8,0,482.0,653.0,0.0,195.0,1,0.37482454788384045
823,823,-0.8456729563480303,-0.8,1,288.0,958.0,1.0,274.0,1,0.20295990188193314
824,824,-0.5657563597275839,-0.6,1,454.0,790.0,1.0,356.0,1,0.09988193176717615
825,825,-0.13144766505688743,-0.1,1,361.0,582.0,1.0,377.0,1,0.15238498067072803
826,826,-0.18898761777993234,-0.2,1,288.0,931.0,1.0,1511.0,1,0.2070275973919737
827,827,-0.37557885120359535,-0.4,1,307.0,967.0,1.0,566.0,1,0.0908627619675785
828,828,-0.5972711520490828,-0.6,1,326.0,623.0,1.0,711.0,1,0.28430299467121445
829,829,-0.3595345521276123,-0.4,1,428.0,593.0,1.0,559.0,1,0.3542407917202251
830,830,-0.930590257495999,-0.9,1,459.0,925.0,1.0,1146.0,1,0.09326134969333003
831,831,0.6098213915631916,0.6,0,346.0,506.0,0.0,308.0,1,0.0347943128692453
832,832,0.6031600514976334,0.6,0,258.0,682.0,0.0,210.0,1,0.37077779957203605
833,833,-0.13477616825896965,-0.1,1,430.0,512.0,0.0,228.0,0,0.3977819778711693
834,834,-0.04108159439181902,-0.0,1,256.0,881.0,1.0,773.0,1,0.04617335994452243
835,835,0.7434757074314315,0.7,0,335.0,626.0,0.0,279.0,1,0.09405905941633011
836,836,0.25352491562886303,0.3,0,364.0,567.0,0.0,369.0,1,0.2879511734508406
837,837,-0.75954476717103,-0.8,1,261.0,824.0,0.0,-325.0,0,0.3739768665229248
838,838,-0.0284767038528162,-0.0,1,440.0,603.0,0.0,597.0,0,0.3310170472221219
839,839,0.9447787746151746,0.9,0,341.0,871.0,0.0,338.0,1,0.26745841343907756
840,840,0.6629019476535598,0.7,0,305.0,926.0,0.0,169.0,1,0.3201173823283751
841,841,0.07930541243994105,0.1,0,437.0,762.0,0.0,451.0,1,0.05238386292992985
842,842,-0.045065737014265084,-0.0,1,356.0,787.0,1.0,457.0,1,0.10722722868705309
843,843,0.03202980591972393,0.0,0,451.0,678.0,0.0,601.0,1,0.1853227299735838
844,844,-0.5840963775538663,-0.6,1,447.0,878.0,1.0,845.0,1,0.1967672371017476
845,845,0.5471985585656074,0.5,0,398.0,571.0,0.0,311.0,1,0.10161283634869962
846,846,-0.24238703567612152,-0.2,1,308.0,682.0,1.0,690.0,1,0.2139191896434697
847,847,-0.15632069132413395,-0.2,1,373.0,573.0,1.0,674.0,1,0.1056910043116186
848,848,0.45183986916145935,0.5,0,457.0,980.0,0.0,303.0,1,0.3394231819961753
849,849,-0.25718367446457835,-0.3,1,263.0,508.0,1.0,1269.0,1,0.32265094977739056
850,850,0.4685210834209488,0.5,0,341.0,516.0,0.0,753.0,1,0.1346183551848319
851,851,0.7807135458494217,0.8,0,386.0,897.0,0.0,277.0,1,0.20092381386846908
852,852,0.8475269786592909,0.8,0,499.0,672.0,0.0,289.0,1,0.2953039277861297
853,853,0.7186117964639764,0.7,0,338.0,660.0,0.0,802.0,1,0.252970521503669
854,854,-0.7039410296464896,-0.7,1,331.0,620.0,1.0,329.0,1,0.22761838977264534
855,855,-0.33207088048133504,-0.3,1,346.0,717.0,1.0,827.0,1,0.03652068641351987
856,856,-0.5035534804671284,-0.5,1,309.0,595.0,1.0,406.0,1,0.36220458858058874
857,857,-0.4608564604924521,-0.5,1,283.0,984.0,1.0,603.0,1,0.050398240856625746
858,858,-0.7445256948895844,-0.7,1,466.0,511.0,1.0,273.0,1,0.20999105040091215
859,859,-0.651352931761193,-0.7,1,274.0,760.0,0.0,-364.0,0,0.36363901941407417
860,860,-0.13994406093221867,-0.1,1,254.0,782.0,1.0,734.0,1,0.36108164210973964
861,861,0.02863317629210993,0.0,0,255.0,810.0,0.0,435.0,1,0.3723910418022243
862,862,-0.30172211086637435,-0.3,1,413.0,557.0,1.0,1130.0,1,0.08172714806423786
863,863,0.6150214231902111,0.6,0,456.0,760.0,0.0,314.0,1,0.1899681443446526
864,864,0.8362197776740472,0.8,0,451.0,989.0,0.0,240.0,1,0.0792266157601611
865,865,0.9855228651645676,1.0,0,468.0,563.0,0.0,329.0,1,0.0663918519249219
866,866,0.9127225343866361,0.9,0,468.0,558.0,0.0,314.0,1,0.2715636879022561
867,867,-0.8295631201286686,-0.8,1,479.0,559.0,1.0,762.0,1,0.28579040232989616
868,868,0.6285221047687009,0.6,0,372.0,521.0,0.0,267.0,1,0.3921237885647424
869,869,-0.5119738192009953,-0.5,1,413.0,636.0,1.0,561.0,1,0.3305251207499835
870,870,-0.05954334910452852,-0.1,1,254.0,757.0,1.0,1789.0,1,0.35110377322028813
871,871,0.289210897508815,0.3,0,289.0,752.0,0.0,269.0,1,0.08018811802899739
872,872,-0.7078685022317219,-0.7,1,296.0,730.0,1.0,414.0,1,0.3101772162224406
873,873,-0.20928845572482446,-0.2,1,390.0,737.0,1.0,433.0,1,0.26500494083245585
874,874,0.12377620789034993,0.1,0,410.0,554.0,0.0,1046.0,1,0.38793347304409354
875,875,-0.489219579408235,-0.5,1,260.0,659.0,1.0,481.0,1,0.12133789044208454
876,876,-0.278534201979006,-0.3,1,492.0,599.0,1.0,319.0,1,0.26850154993820796
877,877,0.73396533652537,0.7,0,478.0,815.0,0.0,187.0,1,0.25041339058451234
878,878,-0.7589267392821388,-0.8,1,409.0,653.0,1.0,578.0,1,0.14183026611124902
879,879,-0.8611053382931051,-0.9,1,437.0,872.0,1.0,291.0,1,0.3767160206739536
880,880,-0.23141982576333353,-0.2,1,362.0,600.0,1.0,858.0,1,0.3666855455183271
881,881,0.350753986818261,0.4,0,398.0,795.0,0.0,497.0,1,0.09410184818796484
882,882,-0.3089634177519791,-0.3,1,461.0,694.0,1.0,405.0,1,0.1769736999366739
883,883,-0.9386519565581173,-0.9,1,299.0,627.0,1.0,184.0,1,0.24565327096706613
884,884,-0.48717110940926656,-0.5,1,280.0,644.0,1.0,366.0,1,0.15795681783551566
885,885,-0.8837539951510616,-0.9,1,313.0,861.0,1.0,266.0,1,0.32437625087542094
886,886,-0.994915561532284,-1.0,1,357.0,706.0,1.0,127.0,1,0.3370344671637958
887,887,-0.5814617645535092,-0.6,1,445.0,510.0,1.0,745.0,1,0.14408873127189925
888,888,0.25084664315069616,0.3,0,487.0,611.0,0.0,282.0,1,0.28393939033907495
889,889,-0.18658450979290042,-0.2,1,433.0,500.0,0.0,197.0,0,0.29813640832780275
890,890,-0.1483178829871381,-0.1,1,420.0,796.0,1.0,674.0,1,0.3936285966055536
891,891,-0.4150896941435396,-0.4,1,266.0,732.0,1.0,462.0,1,0.10245505822193435
892,892,-0.31964604796522766,-0.3,1,428.0,746.0,1.0,396.0,1,0.08325284455475508
893,893,-0.4470799211392458,-0.4,1,272.0,538.0,1.0,240.0,1,0.21549123006150142
894,894,0.656982158859813,0.7,0,280.0,715.0,0.0,305.0,1,0.16963112705374886
895,895,0.7833118329383686,0.8,0,275.0,691.0,0.0,244.0,1,0.14186586921812108
896,896,0.928894349275615,0.9,0,460.0,874.0,0.0,186.0,1,0.31753340270635544
897,897,0.694186364510446,0.7,0,336.0,772.0,0.0,412.0,1,0.29287625305343656
898,898,-0.6324977736763491,-0.6,1,440.0,929.0,1.0,541.0,1,0.04080616839687093
899,899,-0.7720701209093723,-0.8,1,398.0,675.0,1.0,437.0,1,0.33677572543797263
900,900,-0.19373103789512092,-0.2,1,498.0,915.0,1.0,837.0,1,0.18583693644370364
901,901,0.013657401398540214,0.0,0,258.0,825.0,0.0,1167.0,1,0.15547915288612166
902,902,0.8726130350297512,0.9,0,315.0,968.0,0.0,297.0,1,0.2573578968375962
903,903,-0.9742025469681079,-1.0,1,285.0,693.0,1.0,212.0,1,0.19965140267682158
904,904,0.02496686527231251,0.0,0,431.0,699.0,0.0,540.0,1,0.33621964075350563
905,905,0.26905811425033055,0.3,0,252.0,580.0,0.0,478.0,1,0.2667223602362853
906,906,-0.9873193933528985,-1.0,1,362.0,631.0,1.0,327.0,1,0.37486119448269206
907,907,-0.5934024273736762,-0.6,1,299.0,965.0,1.0,146.0,1,0.15548699573339048
908,908,-0.2416376421036186,-0.2,1,310.0,881.0,1.0,879.0,1,0.26437366064381507
909,909,-0.4537319537761344,-0.5,1,384.0,822.0,1.0,444.0,1,0.005500790863755567
910,910,-0.8278525503831065,-0.8,1,300.0,574.0,1.0,496.0,1,0.33887652576176447
911,911,0.4928654909819037,0.5,0,482.0,712.0,0.0,176.0,1,0.3934720238511652
912,912,0.7971605253937875,0.8,0,330.0,627.0,0.0,613.0,1,0.33049492585791745
913,913,-0.293240449446456,-0.3,1,349.0,565.0,1.0,1356.0,1,0.17626074052826493
914,914,0.5136198731871389,0.5,0,393.0,672.0,0.0,405.0,1,0.13977513045385295
915,915,-0.25057896694673354,-0.3,1,379.0,747.0,1.0,624.0,1,0.10688620238812203
916,916,-0.9582360058727777,-1.0,1,322.0,658.0,1.0,150.0,1,0.037996023856761374
917,917,0.9613536682730317,1.0,0,336.0,972.0,0.0,102.0,1,0.3807803189412139
918,918,0.6171824290253012,0.6,0,433.0,529.0,0.0,358.0,1,0.15708802450803905
919,919,-0.11709222068255443,-0.1,1,476.0,992.0,0.0,1112.0,0,0.14274078571103793
920,920,-0.9175701609690854,-0.9,1,455.0,948.0,1.0,487.0,1,0.18850730696871404
921,921,0.9503150091495782,1.0,0,472.0,821.0,0.0,247.0,1,0.16624838503019151
922,922,0.9056039389724735,0.9,0,419.0,808.0,0.0,353.0,1,0.19558572237442415
923,923,0.27071259715003104,0.3,0,400.0,572.0,0.0,1098.0,1,0.12590996495159978
924,924,0.18389600214077273,0.2,0,345.0,707.0,0.0,1108.0,1,0.06016196850218974
925,925,-0.5167478735712843,-0.5,1,311.0,970.0,1.0,289.0,1,0.36920104465123804
926,926,0.7180922886065826,0.7,0,366.0,836.0,0.0,298.0,1,0.3025638385083109
927,927,-0.43006258114085405,-0.4,1,440.0,621.0,1.0,159.0,1,0.0945838865963919
928,928,-0.6347854415511787,-0.6,1,385.0,781.0,1.0,344.0,1,0.3726967620937013
929,929,-0.9706852320897563,-1.0,1,490.0,686.0,1.0,304.0,1,0.09619920889301103
930,930,0.20918946923830362,0.2,0,381.0,824.0,0.0,755.0,1,0.21377043511791194
931,931,0.28751767775541626,0.3,0,391.0,654.0,0.0,535.0,1,0.14766576694239114
932,932,0.9789576909420268,1.0,0,451.0,717.0,0.0,142.0,1,0.278756301959353
933,933,-0.9815476009787203,-1.0,1,451.0,775.0,1.0,814.0,1,0.006907274525713936
934,934,0.36726766620505424,0.4,0,475.0,940.0,0.0,515.0,1,0.18390440913356262
935,935,-0.9629603497539221,-1.0,1,326.0,567.0,1.0,347.0,1,0.24573609298028443
936,936,0.9110548221913226,0.9,0,436.0,596.0,0.0,238.0,1,0.26514139312412727
937,937,-0.12125144512379893,-0.1,1,269.0,644.0,0.0,2247.0,0,0.30739381225393236
938,938,-0.8991415846369593,-0.9,1,359.0,884.0,1.0,337.0,1,0.20854955741933312
939,939,0.49669360043444843,0.5,0,399.0,783.0,0.0,488.0,1,0.34204106345588575
940,940,-0.641140573734734,-0.6,1,259.0,707.0,1.0,244.0,1,0.1751359035092492
941,941,-0.20990101421405116,-0.2,1,455.0,754.0,1.0,621.0,1,0.07010659361898122
942,942,-0.4434382759186337,-0.4,1,496.0,771.0,1.0,443.0,1,0.07668593828573421
943,943,0.6261908540563554,0.6,0,333.0,587.0,0.0,340.0,1,0.049810211179783306
944,944,0.13577277602313687,0.1,0,420.0,937.0,0.0,623.0,1,0.02456270521813
945,945,0.5253054194604911,0.5,0,259.0,980.0,0.0,541.0,1,0.23343178391178962
946,946,0.5940104536252098,0.6,0,379.0,605.0,0.0,306.0,1,0.028426147859359263
947,947,-0.5485721229018745,-0.5,1,423.0,685.0,1.0,362.0,1,0.014055744345422472
948,948,0.5412241362787706,0.5,0,400.0,859.0,0.0,131.0,1,0.325347847416777
949,949,0.18710599267476624,0.2,0,250.0,936.0,0.0,334.0,1,0.12452383565054537
950,950,0.690297147111891,0.7,0,309.0,637.0,0.0,214.0,1,0.3781502697737362
951,951,0.0743061970852057,0.1,0,330.0,550.0,0.0,1790.0,1,0.2718852524232621
952,952,0.05289483247650639,0.1,0,374.0,621.0,0.0,3585.0,1,0.06065879342255629
953,953,-0.9804310024553176,-1.0,1,470.0,537.0,1.0,223.0,1,0.38290595002898026
954,954,0.4944461714343329,0.5,0,379.0,562.0,0.0,339.0,1,0.11895124009702962
955,955,0.08856546103901097,0.1,0,307.0,975.0,0.0,918.0,1,0.33822809682769583
956,956,-0.5417334888223626,-0.5,1,486.0,992.0,1.0,322.0,1,0.33004870143423504
957,957,-0.13437939817920563,-0.1,1,446.0,850.0,1.0,464.0,1,0.023093343404634006
958,958,0.8427771492757448,0.8,0,455.0,507.0,0.0,448.0,1,0.14232228289245735
959,959,-0.9988093637993936,-1.0,1,299.0,688.0,1.0,513.0,1,0.010058490040536983
960,960,0.9356695942716038,0.9,0,493.0,772.0,0.0,215.0,1,0.37201276757085683
961,961,-0.094819352372296,-0.1,1,325.0,979.0,1.0,1016.0,1,0.3537880539474379
962,962,0.5559709245536963,0.6,0,351.0,780.0,0.0,309.0,1,0.1705078477746429
963,963,-0.026842493617998286,-0.0,1,330.0,984.0,1.0,906.0,1,0.06259417987758509
964,964,0.6114516275010391,0.6,0,271.0,557.0,0.0,542.0,1,0.10589672857119137
965,965,0.8347561850782323,0.8,0,320.0,575.0,0.0,295.0,1,0.20101717061802363
966,966,0.6982284202473004,0.7,0,321.0,879.0,0.0,230.0,1,0.3386469494133099
967,967,0.7682252087502617,0.8,0,317.0,865.0,0.0,208.0,1,0.12470038801060307
968,968,0.5915505074079102,0.6,0,430.0,540.0,0.0,430.0,1,0.025642374911461065
969,969,-0.1621502265927095,-0.2,1,392.0,908.0,1.0,870.0,1,0.27959873724506984
970,970,0.948071951724081,0.9,0,325.0,675.0,0.0,230.0,1,0.2728297972794632
971,971,0.21859357402795854,0.2,0,324.0,575.0,0.0,331.0,1,0.0777783639060416
972,972,-0.16918744812581,-0.2,1,318.0,953.0,1.0,469.0,1,0.041300635411262165
973,973,0.023823885040925807,0.0,0,425.0,546.0,0.0,599.0,1,0.23196728833990568
974,974,-0.694987651500178,-0.7,1,393.0,789.0,1.0,328.0,1,0.2776617731441125
975,975,0.4539950005332454,0.5,0,470.0,943.0,0.0,587.0,1,0.05153589418808435
976,976,0.6282409360024228,0.6,0,382.0,756.0,0.0,282.0,1,0.3341388917774732
977,977,0.3417621465346461,0.3,0,376.0,867.0,0.0,297.0,1,0.21223714786708392
978,978,0.21957420131598604,0.2,0,464.0,666.0,0.0,510.0,1,0.3265337754401312
979,979,-0.9901338994813431,-1.0,1,433.0,938.0,1.0,489.0,1,0.3050265201635774
980,980,0.2590778118707211,0.3,0,258.0,956.0,0.0,896.0,1,0.056258826833365694
981,981,-0.6168946109844542,-0.6,1,487.0,572.0,1.0,261.0,1,0.36584098275089655
982,982,-0.8045903886687902,-0.8,1,277.0,503.0,1.0,430.0,1,0.3524857282175458
983,983,-0.49316008615844864,-0.5,1,386.0,574.0,1.0,430.0,1,0.12486083584361235
984,984,-0.21131677191021736,-0.2,1,312.0,774.0,1.0,374.0,1,0.11418975915350918
985,985,-0.8975634327968278,-0.9,1,339.0,500.0,1.0,121.0,1,0.259531054048677
986,986,0.47884769823183837,0.5,0,319.0,870.0,0.0,481.0,1,0.25722165943248265
987,987,-0.24953364178531645,-0.2,1,468.0,520.0,1.0,212.0,1,0.06911161823257923
988,988,0.7090490009938442,0.7,0,411.0,553.0,0.0,396.0,1,0.14562270126476015
989,989,0.5681974234612901,0.6,0,447.0,993.0,0.0,340.0,1,0.08204928612552731
990,990,-0.6021528463241974,-0.6,1,356.0,943.0,1.0,351.0,1,0.24174708161687503
991,991,0.9963671002977168,1.0,0,293.0,758.0,0.0,369.0,1,0.20377143202079495
992,992,0.4792421033037586,0.5,0,488.0,502.0,0.0,630.0,1,0.04104478826126315
993,993,0.11757987058193287,0.1,0,418.0,736.0,0.0,656.0,1,0.23479875029157277
994,994,-0.6575876284450104,-0.7,1,432.0,514.0,1.0,334.0,1,0.3366069820757423
995,995,0.42369807741910637,0.4,0,258.0,855.0,0.0,367.0,1,0.3131629124579368
996,996,-0.5282509792976686,-0.5,1,392.0,920.0,1.0,1038.0,1,0.20266732074132962
997,997,0.5872963449709392,0.6,0,304.0,973.0,0.0,423.0,1,0.06765040908520019
998,998,-0.32599461025574694,-0.3,1,435.0,947.0,1.0,258.0,1,0.32109033660083575
999,999,-0.7935782424979194,-0.8,1,478.0,620.0,1.0,412.0,1,0.21275606137214276
1000,1000,0.024129713702529587,0.0,0,389.0,997.0,1.0,2224.0,0,0.2745632307515956
1001,1001,-0.5468836895843039,-0.5,1,375.0,545.0,1.0,550.0,1,0.14590370596447153
1002,1002,-0.8373027378262108,-0.8,1,385.0,523.0,1.0,402.0,1,0.13204034352919353
1003,1003,-0.15560648489829254,-0.2,1,435.0,956.0,1.0,789.0,1,0.01336507156911191
1004,1004,-0.7921484345965522,-0.8,1,348.0,941.0,1.0,471.0,1,0.37463655116804184
1005,1005,-0.5229525908272825,-0.5,1,343.0,576.0,1.0,281.0,1,0.008676023788744037
1006,1006,-0.369586405480949,-0.4,1,468.0,622.0,1.0,660.0,1,0.38609134042657167
1007,1007,0.8788671125151934,0.9,0,483.0,853.0,0.0,254.0,1,0.05633704903518049
1008,1008,-0.048861858651450873,-0.0,1,400.0,967.0,0.0,753.0,0,0.22594437445693438
1009,1009,-0.5755530257417505,-0.6,1,376.0,688.0,1.0,486.0,1,0.2709706405580295
1010,1010,-0.3930020688522007,-0.4,1,494.0,721.0,1.0,745.0,1,0.1471012960290139
1011,1011,0.30309398258220677,0.3,0,346.0,904.0,0.0,620.0,1,0.19680058534138622
1012,1012,-0.11581324823688255,-0.1,1,295.0,731.0,0.0,334.0,0,0.32964003958832366
1013,1013,-0.9116079904366512,-0.9,1,482.0,934.0,1.0,254.0,1,0.11073474898335407
1014,1014,0.35258474145340335,0.4,0,494.0,971.0,0.0,385.0,1,0.1500158112478782
1015,1015,0.26392020427488583,0.3,0,430.0,677.0,0.0,433.0,1,0.12070712281570156
1016,1016,0.24643177065506516,0.2,0,251.0,690.0,0.0,669.0,1,0.23278867373371073
1017,1017,-0.46808440648310956,-0.5,1,415.0,608.0,1.0,527.0,1,0.2709738891075161
1018,1018,0.39727596332801074,0.4,0,261.0,681.0,0.0,588.0,1,0.33282403602121413
1019,1019,0.5506691342410905,0.6,0,371.0,887.0,0.0,192.0,1,0.2908191485095443
1020,1020,-0.08329173048846483,-0.1,1,254.0,881.0,0.0,555.0,0,0.3210917181848506
1021,1021,0.531867914030552,0.5,0,433.0,692.0,0.0,95.0,1,0.36768898152905516
1022,1022,-0.5331212564338357,-0.5,1,437.0,920.0,1.0,303.0,1,0.10763223826674771
1023,1023,0.29443675195949437,0.3,0,411.0,538.0,0.0,1411.0,1,0.13105542240566667
1024,1024,-0.9848603043962656,-1.0,1,429.0,519.0,1.0,212.0,1,0.3920246172437083
1025,1025,0.7069629044948509,0.7,0,390.0,751.0,0.0,389.0,1,0.04055354988633995
1026,1026,-0.40311369026554256,-0.4,1,293.0,619.0,1.0,268.0,1,0.013241839375512533
1027,1027,-0.9782250155055316,-1.0,1,467.0,631.0,1.0,282.0,1,0.004551714875817625
1028,1028,0.9504235840045021,1.0,0,315.0,823.0,0.0,522.0,1,0.2590660204595963
1029,1029,0.8510188745722078,0.9,0,394.0,711.0,0.0,165.0,1,0.2617528826608228
1030,1030,0.3315530206741706,0.3,0,372.0,645.0,0.0,363.0,1,0.28580217308956657
1031,1031,-0.6348836796302741,-0.6,1,280.0,682.0,1.0,258.0,1,0.012388067276533432
1032,1032,0.23364466653908988,0.2,0,368.0,867.0,1.0,395.0,0,0.3424704087062514
1033,1033,-0.6823990657306855,-0.7,1,446.0,664.0,1.0,300.0,1,0.09459207314765959
1034,1034,0.11858151026041308,0.1,0,366.0,615.0,0.0,779.0,1,0.03467250552271093
1035,1035,0.8330834158977731,0.8,0,267.0,567.0,0.0,666.0,1,0.25780987411614
1036,1036,0.1398165196575234,0.1,0,400.0,697.0,0.0,1373.0,1,0.21985590762526194
1037,1037,-0.254943906404554,-0.3,1,328.0,846.0,1.0,1256.0,1,0.3811530865384509
1038,1038,0.6539744790099646,0.7,0,436.0,648.0,0.0,476.0,1,0.3020558488935542
1039,1039,-0.6731732359429841,-0.7,1,294.0,851.0,1.0,145.0,1,0.35933701568624876
1040,1040,0.8077656834346529,0.8,0,254.0,854.0,0.0,692.0,1,0.3274385546914254
1041,1041,0.3435909048620043,0.3,0,401.0,793.0,0.0,376.0,1,0.20183788297047062
1042,1042,0.10223429626165514,0.1,0,253.0,938.0,0.0,579.0,1,0.3756778823339836
1043,1043,0.9518450605763384,1.0,0,458.0,733.0,0.0,199.0,1,0.30399913067710665
1044,1044,-0.14064472192870836,-0.1,1,419.0,983.0,1.0,428.0,1,0.14969595228521845
1045,1045,-0.18481790627432648,-0.2,1,438.0,532.0,1.0,320.0,1,0.31241937049727864
1046,1046,-0.7744058123962767,-0.8,1,320.0,538.0,1.0,402.0,1,0.04755343625925815
1047,1047,-0.5159199864758037,-0.5,1,336.0,728.0,1.0,296.0,1,0.06700955511122882
1048,1048,-0.251081554945884,-0.3,1,447.0,816.0,1.0,297.0,1,0.27441171708236006
1049,1049,0.5971048290199492,0.6,0,259.0,693.0,0.0,448.0,1,0.16935748057669936
1050,1050,0.9680092973645185,1.0,0,379.0,689.0,0.0,362.0,1,0.08706791296570482
1051,1051,0.314498586092951,0.3,0,429.0,887.0,0.0,534.0,1,0.362494866406608
1052,1052,0.016861151798554408,0.0,0,499.0,740.0,1.0,481.0,0,0.03792749184535693
1053,1053,0.1359182518994828,0.1,0,459.0,584.0,0.0,647.0,1,0.0005815487057165392
1054,1054,-0.6570468733177843,-0.7,1,397.0,562.0,1.0,461.0,1,0.3903004037957701
1055,1055,-0.711425924997424,-0.7,1,343.0,754.0,1.0,513.0,1,0.2740343892050161
1056,1056,-0.6310358270143801,-0.6,1,265.0,886.0,1.0,309.0,1,0.39856162424285957
1057,1057,0.5405766687870466,0.5,0,413.0,667.0,0.0,310.0,1,0.06022720038736509
1058,1058,-0.42436852065051567,-0.4,1,340.0,544.0,1.0,286.0,1,0.21424476400822046
1059,1059,-0.8385007101183357,-0.8,1,347.0,779.0,1.0,274.0,1,0.3361877628061833
1060,1060,0.09403452613233232,0.1,0,317.0,810.0,0.0,493.0,1,0.18581233702725086
1061,1061,0.03435153986052897,0.0,0,291.0,827.0,0.0,1892.0,1,0.1390670184643096
1062,1062,0.1193004416856338,0.1,0,306.0,601.0,0.0,873.0,1,0.07448771014711135
1063,1063,-0.6688715486196875,-0.7,1,317.0,861.0,1.0,592.0,1,0.14931311062955308
1064,1064,0.9883046659280981,1.0,0,446.0,999.0,0.0,295.0,1,0.2615498787059769
1065,1065,-0.9111668540998021,-0.9,1,408.0,501.0,1.0,661.0,1,0.31057978573329936
1066,1066,0.43840087919782,0.4,0,454.0,982.0,0.0,334.0,1,0.25972731769937046
1067,1067,0.09908566445250533,0.1,0,480.0,945.0,0.0,895.0,1,0.11146075223882349
1068,1068,-0.5620430203414546,-0.6,1,308.0,948.0,1.0,354.0,1,0.15329459514605293
1069,1069,0.30663497905577897,0.3,0,405.0,542.0,0.0,373.0,1,0.27426581155950364
1070,1070,-0.7603771892902798,-0.8,1,390.0,797.0,1.0,293.0,1,0.34457431976745956
1071,1071,-0.714544508018053,-0.7,1,360.0,620.0,1.0,330.0,1,0.11366884522646169
1072,1072,0.4304883446204313,0.4,0,497.0,833.0,0.0,330.0,1,0.07083764634491967
1073,1073,-0.5783029135149649,-0.6,1,415.0,741.0,1.0,474.0,1,0.13766293213047548
1074,1074,-0.34970512393462005,-0.3,1,321.0,888.0,1.0,751.0,1,0.19969910355203996
1075,1075,-0.8035958933015033,-0.8,1,376.0,721.0,1.0,283.0,1,0.11551846727049969
1076,1076,-0.2749328076608497,-0.3,1,331.0,856.0,1.0,363.0,1,0.061988303059927224
1077,1077,-0.5135337338126662,-0.5,1,320.0,890.0,1.0,320.0,1,0.007111933020859995
1078,1078,-0.4082479311893519,-0.4,1,483.0,814.0,1.0,263.0,1,0.07683930393381254
1079,1079,0.5917369588525991,0.6,0,452.0,912.0,0.0,256.0,1,0.11385264168126562
1080,1080,0.7089458901425407,0.7,0,266.0,859.0,0.0,685.0,1,0.12048804360502424
1081,1081,0.30499364991763045,0.3,0,285.0,884.0,0.0,901.0,1,0.038610878501996605
1082,1082,-0.032861157526415496,-0.0,1,289.0,529.0,1.0,2662.0,1,0.3359086530706199
1083,1083,0.3028880686706159,0.3,0,342.0,565.0,0.0,233.0,1,0.3211251892322689
1084,1084,0.3853500671907979,0.4,0,441.0,723.0,0.0,906.0,1,0.368459170076782
1085,1085,0.9341528237692653,0.9,0,279.0,653.0,0.0,298.0,1,0.03131941851236362
1086,1086,0.323044894935943,0.3,0,251.0,727.0,0.0,312.0,1,0.3438217459492656
1087,1087,0.8388176616030001,0.8,0,403.0,825.0,0.0,242.0,1,0.1864476465829403
1088,1088,-0.21964172270403792,-0.2,1,389.0,508.0,1.0,1343.0,1,0.06025240564933481
1089,1089,-0.6582392545581741,-0.7,1,464.0,771.0,1.0,365.0,1,0.14015527901015376
1090,1090,0.5775348899844022,0.6,0,471.0,820.0,0.0,69.0,1,0.38460112095864035
1091,1091,-0.6451440825284658,-0.6,1,433.0,979.0,1.0,168.0,1,0.23293335237899904
1092,1092,0.591856344254128,0.6,0,398.0,900.0,0.0,282.0,1,0.24511634061008447
1093,1093,0.8777608685663549,0.9,0,448.0,861.0,0.0,271.0,1,0.12874309857071525
1094,1094,0.8562601383861776,0.9,0,399.0,512.0,0.0,309.0,1,0.08031031804531415
1095,1095,0.8538316058917372,0.9,0,333.0,933.0,0.0,334.0,1,0.04604925039360919
1096,1096,0.3983792770290706,0.4,0,399.0,614.0,0.0,507.0,1,0.1039753821768764
1097,1097,-0.27828138784527634,-0.3,1,286.0,927.0,1.0,297.0,1,0.3592276331132831
1098,1098,-0.3852586877527511,-0.4,1,318.0,840.0,1.0,542.0,1,0.24393090344154345
1099,1099,-0.844286501578215,-0.8,1,469.0,950.0,1.0,161.0,1,0.024015673434715668
1100,1100,0.9607851381800305,1.0,0,478.0,797.0,0.0,265.0,1,0.08675551192155338
1101,1101,-0.2773953895112291,-0.3,1,254.0,563.0,1.0,413.0,1,0.05194998190016636
1102,1102,0.8921707912450696,0.9,0,484.0,922.0,0.0,174.0,1,0.34670086063394395
1103,1103,0.45616072058736945,0.5,0,365.0,958.0,0.0,287.0,1,0.2065295386157453
1104,1104,-0.5739729327707668,-0.6,1,340.0,967.0,1.0,493.0,1,0.2772735086291448
1105,1105,-0.37108218752101707,-0.4,1,408.0,953.0,1.0,759.0,1,0.18175129084271469
1106,1106,0.31525193775862914,0.3,0,405.0,712.0,0.0,543.0,1,0.13402008972354484
1107,1107,0.008767479263043887,0.0,0,411.0,540.0,1.0,389.0,0,0.2175605650725989
1108,1108,-0.27041494970128244,-0.3,1,361.0,886.0,1.0,443.0,1,0.01141907925243828
1109,1109,0.8928505293716382,0.9,0,432.0,821.0,0.0,87.0,1,0.39639102794487113
1110,1110,0.3843383540098049,0.4,0,477.0,697.0,0.0,306.0,1,0.2317917114262428
1111,1111,-0.3499712190427984,-0.3,1,430.0,792.0,1.0,388.0,1,0.2705029552650707
1112,1112,-0.49342129047973105,-0.5,1,323.0,889.0,1.0,608.0,1,0.20568746936341703
1113,1113,-0.8180629907735215,-0.8,1,318.0,964.0,1.0,358.0,1,0.2810127145077715
1114,1114,-0.8782657997934535,-0.9,1,282.0,541.0,1.0,687.0,1,0.10316092998917199
1115,1115,-0.1455213089638301,-0.1,1,437.0,548.0,1.0,3565.0,1,0.1461461659625201
1116,1116,0.5346233249440002,0.5,0,356.0,751.0,0.0,513.0,1,0.32227558274081836
1117,1117,-0.8355071660128468,-0.8,1,489.0,781.0,1.0,330.0,1,0.17888956758643776
1118,1118,-0.9431369661703191,-0.9,1,418.0,806.0,1.0,256.0,1,0.3954826264179208
1119,1119,-0.10477924392179028,-0.1,1,363.0,766.0,1.0,881.0,1,0.35217806034098564
1120,1120,0.8108698476533878,0.8,0,309.0,688.0,0.0,223.0,1,0.3811216581586824
1121,1121,-0.40841784148025084,-0.4,1,340.0,568.0,1.0,472.0,1,0.26426448086586884
1122,1122,-0.8371120308631148,-0.8,1,335.0,746.0,1.0,319.0,1,0.35186971879540385
1123,1123,0.3117499681283704,0.3,0,477.0,582.0,0.0,671.0,1,0.2167377203436905
1124,1124,-0.8252813244601629,-0.8,1,493.0,586.0,1.0,381.0,1,0.24203909426627754
1125,1125,0.336880113542646,0.3,0,360.0,508.0,0.0,492.0,1,0.09379700627354191
1126,1126,0.7569010502060138,0.8,0,391.0,765.0,0.0,404.0,1,0.17229113590806555
1127,1127,-0.3758779488840438,-0.4,1,299.0,565.0,1.0,696.0,1,0.34646252544811856
1128,1128,-0.18105757845588588,-0.2,1,329.0,779.0,1.0,1092.0,1,0.2874984355656962
1129,1129,0.9064193621981225,0.9,0,461.0,609.0,0.0,200.0,1,0.34971316337089653
1130,1130,0.6414517133965827,0.6,0,460.0,706.0,0.0,134.0,1,0.3064989076239879
1131,1131,-0.3354768051638435,-0.3,1,267.0,886.0,1.0,777.0,1,0.3101185677459997
1132,1132,-0.6442672445236111,-0.6,1,328.0,908.0,1.0,304.0,1,0.3870309434903394
1133,1133,-0.07034919557167418,-0.1,1,264.0,887.0,1.0,439.0,1,0.12499272284690317
1134,1134,0.3162140014692365,0.3,0,475.0,863.0,0.0,252.0,1,0.16449375553698828
1135,1135,-0.7972851292030263,-0.8,1,348.0,735.0,1.0,227.0,1,0.007918573136239226
1136,1136,0.7929851627051776,0.8,0,384.0,783.0,0.0,233.0,1,0.19060942240537282
1137,1137,-0.6986158223762635,-0.7,1,350.0,989.0,1.0,341.0,1,0.20816627952649536
1138,1138,-0.9982291702474848,-1.0,1,395.0,518.0,1.0,387.0,1,0.17009308369281625
1139,1139,0.18213504025878713,0.2,0,418.0,891.0,0.0,411.0,1,0.06642735048198078
1140,1140,0.6325775412950307,0.6,0,449.0,773.0,0.0,438.0,1,0.2941517631069203
1141,1141,-0.30181811851936535,-0.3,1,360.0,801.0,1.0,859.0,1,0.27828588651560066
1142,1142,0.1333132411246749,0.1,0,272.0,705.0,0.0,573.0,1,0.397861397963358
1143,1143,-0.18222292442721533,-0.2,1,490.0,851.0,1.0,409.0,1,0.029099394467286422
1144,1144,0.12794209053385197,0.1,0,336.0,810.0,0.0,914.0,1,0.3650331647023349
1145,1145,0.3687892517772422,0.4,0,495.0,523.0,0.0,372.0,1,0.015871769470383778
1146,1146,-0.611526165312017,-0.6,1,439.0,763.0,1.0,208.0,1,0.30657225402801136
1147,1147,-0.09290100399223533,-0.1,1,313.0,690.0,0.0,817.0,0,0.3184010855377842
1148,1148,-0.38905712651395796,-0.4,1,329.0,974.0,1.0,517.0,1,0.34107645842110434
1149,1149,0.10554508885594771,0.1,0,385.0,699.0,0.0,286.0,1,0.3674297819810444
1150,1150,-0.5452439530300022,-0.5,1,404.0,930.0,1.0,1026.0,1,0.10978634382671074
1151,1151,0.31657182989570765,0.3,0,499.0,608.0,0.0,313.0,1,0.07180769070977648
1152,1152,0.9113799175523409,0.9,0,435.0,776.0,0.0,299.0,1,0.3716424583376627
1153,1153,-0.6127941966582495,-0.6,1,385.0,623.0,1.0,412.0,1,0.0760377836989993
1154,1154,-0.17358280706817464,-0.2,1,274.0,741.0,0.0,905.0,0,0.0896808771118419
1155,1155,0.8671202832305769,0.9,0,356.0,908.0,0.0,306.0,1,0.23656692887245165
1156,1156,0.7749266751099819,0.8,0,439.0,975.0,0.0,456.0,1,0.1334130780060294
1157,1157,0.44392337265093995,0.4,0,429.0,864.0,0.0,227.0,1,0.12649994598127498
1158,1158,0.4233225649434731,0.4,0,404.0,732.0,0.0,334.0,1,0.26864557429883984
1159,1159,0.9671170314246682,1.0,0,306.0,646.0,0.0,328.0,1,0.20765958835892573
1160,1160,-0.8753350279667169,-0.9,1,381.0,870.0,1.0,259.0,1,0.13568065511680386
1161,1161,0.3046457817366719,0.3,0,492.0,901.0,0.0,377.0,1,0.2757883481750008
1162,1162,0.7541697682998687,0.8,0,326.0,781.0,0.0,313.0,1,0.037190004822258475
1163,1163,-0.2256889019641155,-0.2,1,347.0,797.0,1.0,706.0,1,0.35572436586869144
1164,1164,-0.5272124982456772,-0.5,1,490.0,512.0,1.0,268.0,1,0.1073261837711161
1165,1165,0.5223510583911886,0.5,0,413.0,917.0,0.0,340.0,1,0.12071248651030447
1166,1166,0.8572199898811115,0.9,0,336.0,676.0,0.0,528.0,1,0.09522572429533316
1167,1167,0.980385264101272,1.0,0,469.0,813.0,0.0,268.0,1,0.09055797309490346
1168,1168,0.8863048456966605,0.9,0,360.0,762.0,0.0,228.0,1,0.3012844189209902
1169,1169,0.6510078894958076,0.7,0,386.0,627.0,0.0,137.0,1,0.09981138150696972
1170,1170,-0.46477152406893474,-0.5,1,440.0,906.0,1.0,394.0,1,0.07328606370348659
1171,1171,-0.8100523189386708,-0.8,1,286.0,836.0,1.0,388.0,1,0.3403431603723095
1172,1172,-0.808240876673141,-0.8,1,449.0,742.0,1.0,239.0,1,0.27424759495523615
1173,1173,-0.5391735940768039,-0.5,1,284.0,894.0,1.0,332.0,1,0.058541123948597076
1174,1174,-0.7821698931925696,-0.8,1,469.0,845.0,1.0,226.0,1,0.2992378014714571
1175,1175,-0.802361379038171,-0.8,1,396.0,855.0,1.0,249.0,1,0.20013467578181698
1176,1176,0.6657231363638685,0.7,0,423.0,594.0,0.0,363.0,1,0.008741049379099941
1177,1177,-0.4504320966361721,-0.5,1,420.0,995.0,1.0,335.0,1,0.02382039631056747
1178,1178,0.8131463707843241,0.8,0,449.0,558.0,0.0,323.0,1,0.2749494334016135
1179,1179,0.25856242707522803,0.3,0,259.0,584.0,0.0,377.0,1,0.16194657509523414
1180,1180,0.9824124670550993,1.0,0,339.0,736.0,0.0,325.0,1,0.11826255820325798
1181,1181,-0.7938311758981309,-0.8,1,325.0,877.0,1.0,358.0,1,0.3634405534417112
1182,1182,-0.8163406947036831,-0.8,1,493.0,653.0,1.0,384.0,1,0.14662265846116065
1183,1183,0.5191522465131615,0.5,0,322.0,894.0,0.0,344.0,1,0.14635365503929107
1184,1184,0.6559051825216569,0.7,0,441.0,827.0,0.0,382.0,1,0.17154336179717095
1185,1185,0.5141995330149012,0.5,0,296.0,886.0,0.0,548.0,1,0.2627829316611403
1186,1186,0.29997510256375537,0.3,0,402.0,509.0,0.0,229.0,1,0.2527692111553557
1187,1187,-0.21829749460699044,-0.2,1,283.0,660.0,1.0,1447.0,1,0.12001586385814762
1188,1188,-0.4531910774163779,-0.5,1,488.0,602.0,1.0,400.0,1,0.16092553678707625
1189,1189,-0.771524248769067,-0.8,1,413.0,993.0,1.0,1684.0,1,0.02411115070287604
1190,1190,0.8891233720458926,0.9,0,440.0,891.0,0.0,499.0,1,0.2258564458317349
1191,1191,0.08868060940520683,0.1,0,260.0,686.0,0.0,894.0,1,0.23364298673576622
1192,1192,0.7741103740883928,0.8,0,369.0,715.0,0.0,296.0,1,0.07722450627617272
1193,1193,0.08713746389398835,0.1,0,370.0,666.0,1.0,474.0,0,0.2062336510788224
1194,1194,0.10613658981147389,0.1,0,423.0,779.0,0.0,2098.0,1,0.1266902263506587
1195,1195,0.7468728655808716,0.7,0,319.0,621.0,0.0,160.0,1,0.23656259099413235
1196,1196,-0.4670102370894784,-0.5,1,343.0,988.0,1.0,429.0,1,0.26412935552794586
1197,1197,-0.7736403881043987,-0.8,1,251.0,808.0,1.0,231.0,1,0.18920984203570895
1198,1198,0.31661997764939986,0.3,0,291.0,551.0,0.0,538.0,1,0.03760133798295611
1199,1199,-0.3024198998725154,-0.3,1,475.0,773.0,1.0,892.0,1,0.19654506004132208
1200,1200,-0.28582118402154055,-0.3,1,444.0,871.0,1.0,215.0,1,0.19818789048586694
1201,1201,-0.4908527933312945,-0.5,1,340.0,669.0,1.0,811.0,1,0.04780753048691664
1202,1202,-0.025923682468344644,-0.0,1,298.0,574.0,1.0,668.0,1,0.06091229318767599
1203,1203,0.6752593971398606,0.7,0,467.0,652.0,0.0,401.0,1,0.34209116581829446
1204,1204,0.01999307758499791,0.0,0,268.0,502.0,0.0,660.0,1,0.13158351835901008
1205,1205,0.6328437809108858,0.6,0,430.0,562.0,0.0,418.0,1,0.23828888102077614
1206,1206,-0.34609509549727746,-0.3,1,278.0,599.0,1.0,673.0,1,0.05673578441818679
1207,1207,-0.7402308587342221,-0.7,1,287.0,869.0,1.0,244.0,1,0.138175904516004
1208,1208,-0.7793139938423821,-0.8,1,284.0,904.0,1.0,622.0,1,0.3960695782439716
1209,1209,0.5506324403748868,0.6,0,476.0,777.0,0.0,357.0,1,0.23719325938738606
1210,1210,0.9241937244779854,0.9,0,439.0,806.0,0.0,385.0,1,0.2930505977133681
1211,1211,0.4239446966141682,0.4,0,390.0,642.0,0.0,388.0,1,0.08992582401166645
1212,1212,-0.3336123031803224,-0.3,1,366.0,844.0,1.0,360.0,1,0.2689696309066455
1213,1213,-0.7879049113275529,-0.8,1,460.0,964.0,1.0,256.0,1,0.3721477756035371
1214,1214,-0.8989915881783535,-0.9,1,426.0,868.0,1.0,276.0,1,0.11480159953090002
1215,1215,-0.26925802154277423,-0.3,1,259.0,510.0,1.0,541.0,1,0.12303802079190165
1216,1216,0.5217257698684905,0.5,0,320.0,985.0,0.0,295.0,1,0.020687029472632013
1217,1217,0.5089310781082252,0.5,0,483.0,985.0,0.0,182.0,1,0.22751917104527752
1218,1218,0.4439804529632163,0.4,0,415.0,811.0,0.0,544.0,1,0.10458908285582563
1219,1219,-0.5313090864468684,-0.5,1,464.0,565.0,1.0,351.0,1,0.03167436877497067
1220,1220,0.03936550485044554,0.0,0,365.0,969.0,0.0,1696.0,1,0.16215546833253167
1221,1221,0.897860553330659,0.9,0,378.0,516.0,0.0,116.0,1,0.36987639426639807
1222,1222,0.9913848565140417,1.0,0,382.0,739.0,0.0,289.0,1,0.08586963784994972
1223,1223,0.25164475975992784,0.3,0,495.0,712.0,0.0,1113.0,1,0.027830050507829232
1224,1224,0.6578643056325637,0.7,0,341.0,551.0,0.0,418.0,1,0.19369594032268564
1225,1225,0.6623376705305002,0.7,0,258.0,937.0,0.0,305.0,1,0.16469951427883034
1226,1226,-0.9487471510050762,-0.9,1,451.0,609.0,1.0,210.0,1,0.2863417344220117
1227,1227,-0.3280265235561437,-0.3,1,414.0,982.0,1.0,384.0,1,0.18142261444858848
1228,1228,-0.48732835258252716,-0.5,1,259.0,702.0,1.0,809.0,1,0.27195470104959657
1229,1229,-0.9984540626752132,-1.0,1,393.0,927.0,1.0,180.0,1,0.31029810328902624
1230,1230,0.73219375208628,0.7,0,451.0,569.0,0.0,160.0,1,0.21222485420126078
1231,1231,0.5703423171538813,0.6,0,379.0,505.0,0.0,406.0,1,0.16809598294947048
1232,1232,-0.07407956242584746,-0.1,1,320.0,742.0,0.0,438.0,0,0.39288315030759186
1233,1233,0.04313575281493298,0.0,0,457.0,651.0,1.0,2002.0,0,0.13883989678058337
1234,1234,-0.3935691870944795,-0.4,1,267.0,846.0,1.0,597.0,1,0.1708863194570145
1235,1235,-0.8094957212776399,-0.8,1,481.0,543.0,1.0,546.0,1,0.05656854637588898
1236,1236,0.46337157549063357,0.5,0,287.0,745.0,0.0,288.0,1,0.1518652666433291
1237,1237,0.35916926150626693,0.4,0,337.0,683.0,0.0,270.0,1,0.18708442400754174
1238,1238,0.8523850717412775,0.9,0,395.0,636.0,0.0,289.0,1,0.008222764989200071
1239,1239,-0.4627380573173172,-0.5,1,460.0,634.0,1.0,386.0,1,0.20950416264245733
1240,1240,-0.9775874029251466,-1.0,1,326.0,642.0,1.0,282.0,1,0.009291068199089647
1241,1241,-0.16223942524022594,-0.2,1,453.0,980.0,1.0,1277.0,1,0.06782830659322805
1242,1242,-0.04244011198023445,-0.0,1,395.0,771.0,1.0,994.0,1,0.21581085802325006
1243,1243,-0.016184621509917285,-0.0,1,400.0,853.0,1.0,487.0,1,0.0898187136393692
1244,1244,-0.9942749552858063,-1.0,1,469.0,788.0,1.0,383.0,1,0.33068312960725466
1245,1245,0.4494809440784675,0.4,0,463.0,678.0,0.0,259.0,1,0.3510114620554192
1246,1246,-0.8184408722490302,-0.8,1,290.0,976.0,1.0,204.0,1,0.3500753745772702
1247,1247,0.04784146569650427,0.0,0,279.0,936.0,0.0,2415.0,1,0.04053239942327896
1248,1248,0.6618787303038043,0.7,0,414.0,659.0,0.0,357.0,1,0.1915139661640436
1249,1249,-0.5031902502509582,-0.5,1,275.0,631.0,1.0,394.0,1,0.14722065047649383
1250,1250,0.025703299109262945,0.0,0,259.0,995.0,0.0,1536.0,1,0.3368002052819452
1251,1251,0.934769132351781,0.9,0,303.0,991.0,0.0,466.0,1,0.2486148869259647
1252,1252,-0.26549058053240726,-0.3,1,347.0,810.0,1.0,453.0,1,0.3483370044847438
1253,1253,0.10754470238789593,0.1,0,468.0,506.0,0.0,756.0,1,0.3814614579754815
1254,1254,0.8388406936471597,0.8,0,394.0,534.0,0.0,262.0,1,0.2316193770319624
1255,1255,0.4582554927416218,0.5,0,334.0,759.0,0.0,687.0,1,0.00603877778890869
1256,1256,-0.4603216883345993,-0.5,1,446.0,810.0,1.0,354.0,1,0.012036916106536656
1257,1257,0.7357489352618682,0.7,0,300.0,646.0,0.0,364.0,1,0.2473603330886165
1258,1258,0.232312139347713,0.2,0,350.0,887.0,0.0,733.0,1,0.017930884288549633
1259,1259,0.2703472656030814,0.3,0,367.0,679.0,0.0,214.0,1,0.26807367124412623
1260,1260,-0.2539791121230466,-0.3,1,323.0,650.0,1.0,427.0,1,0.03635582180774146
1261,1261,0.872918729554742,0.9,0,446.0,675.0,0.0,309.0,1,0.29477309488247
1262,1262,-0.9604832102423138,-1.0,1,400.0,736.0,1.0,354.0,1,0.1384896440724481
1263,1263,0.046374237223345105,0.0,0,261.0,806.0,0.0,523.0,1,0.1416630721307935
1264,1264,0.7099410231109495,0.7,0,256.0,839.0,0.0,415.0,1,0.16898826883061477
1265,1265,-0.9671474988229949,-1.0,1,473.0,635.0,1.0,372.0,1,0.3198199416432013
1266,1266,0.5933500195176031,0.6,0,408.0,790.0,0.0,472.0,1,0.11945261174657258
1267,1267,0.9138867554189427,0.9,0,283.0,865.0,0.0,322.0,1,0.13011140936842663
1268,1268,0.5084696486553961,0.5,0,454.0,761.0,0.0,435.0,1,0.24675652697007233
1269,1269,0.7363003572800673,0.7,0,278.0,710.0,0.0,622.0,1,0.19688052863887076
1270,1270,0.007048885350922518,0.0,0,434.0,722.0,0.0,994.0,1,0.07166541985435004
1271,1271,0.09953910070469085,0.1,0,411.0,906.0,0.0,973.0,1,0.20273109425867974
1272,1272,0.16451603071234566,0.2,0,471.0,511.0,0.0,368.0,1,0.39293319731016507
1273,1273,-0.331985285952779,-0.3,1,287.0,967.0,1.0,326.0,1,0.21134745146507228
1274,1274,-0.03678251350738293,-0.0,1,263.0,542.0,1.0,455.0,1,0.11712486965721527
