,trial,coherence,coherence_bin,correct_side,target_onset,checker_onset,decision,decision_time,correct_decision,green_side,chosen_color
0,0,0.6706776824484527,0.7,0.0,349.0,876.0,0.0,125.0,1,1.0,1.0
1,1,0.2960485787344721,0.3,1.0,436.0,904.0,1.0,540.0,1,0.0,1.0
2,2,0.34732717429946225,0.3,1.0,257.0,678.0,1.0,145.0,1,0.0,1.0
3,3,0.0878198221275982,0.1,1.0,281.0,907.0,1.0,2242.0,1,0.0,1.0
4,4,-0.5971449583320234,-0.6,0.0,300.0,924.0,0.0,346.0,1,0.0,0.0
5,5,-0.8553433453921153,-0.9,0.0,396.0,631.0,0.0,143.0,1,0.0,0.0
6,6,-0.19454031360515034,-0.2,0.0,429.0,620.0,0.0,511.0,1,0.0,0.0
7,7,0.5083140824788231,0.5,0.0,327.0,987.0,1.0,-314.0,0,1.0,0.0
8,8,-0.4720804210195604,-0.5,0.0,417.0,782.0,0.0,71.0,1,0.0,0.0
9,9,-0.1474936181232468,-0.1,0.0,387.0,924.0,0.0,279.0,1,0.0,0.0
10,10,-0.05290472371478294,-0.1,0.0,482.0,734.0,0.0,594.0,1,0.0,0.0
11,11,0.17585795429379936,0.2,1.0,433.0,552.0,1.0,855.0,1,0.0,1.0
12,12,-0.15811561834157084,-0.2,0.0,284.0,764.0,0.0,1362.0,1,0.0,0.0
13,13,0.83570602072405,0.8,1.0,324.0,874.0,1.0,82.0,1,0.0,1.0
14,14,0.22927704077668432,0.2,0.0,324.0,798.0,0.0,448.0,1,1.0,1.0
15,15,0.6175390166087676,0.6,1.0,480.0,606.0,1.0,134.0,1,0.0,1.0
16,16,-0.47496150250477825,-0.5,1.0,303.0,513.0,1.0,294.0,1,1.0,0.0
17,17,-0.36129605550999866,-0.4,1.0,492.0,543.0,1.0,145.0,1,1.0,0.0
18,18,0.27194752089807095,0.3,1.0,252.0,531.0,1.0,497.0,1,0.0,1.0
19,19,0.389804042683901,0.4,0.0,479.0,630.0,0.0,201.0,1,1.0,1.0
20,20,-0.597339268545364,-0.6,1.0,310.0,589.0,1.0,111.0,1,1.0,0.0
21,21,-0.8880678403701464,-0.9,0.0,496.0,655.0,0.0,379.0,1,0.0,0.0
22,22,0.028373183810122993,0.0,0.0,372.0,798.0,0.0,1100.0,1,1.0,1.0
23,23,-0.7018114246974498,-0.7,1.0,282.0,798.0,1.0,180.0,1,1.0,0.0
24,24,-0.8457456657659862,-0.8,1.0,383.0,972.0,1.0,155.0,1,1.0,0.0
25,25,0.43509489089045583,0.4,1.0,280.0,787.0,1.0,283.0,1,0.0,1.0
26,26,0.737554331979085,0.7,1.0,381.0,764.0,1.0,105.0,1,0.0,1.0
27,27,0.6035200032503408,0.6,1.0,260.0,959.0,1.0,61.0,1,0.0,1.0
28,28,-0.33362947333312976,-0.3,0.0,449.0,907.0,0.0,654.0,1,0.0,0.0
29,29,0.08537651823148806,0.1,0.0,314.0,814.0,0.0,272.0,1,1.0,1.0
30,30,-0.7756467627090644,-0.8,0.0,450.0,912.0,0.0,8.0,1,0.0,0.0
31,31,0.7885305500552647,0.8,0.0,347.0,666.0,0.0,117.0,1,1.0,1.0
32,32,0.3240751483331913,0.3,1.0,267.0,813.0,1.0,310.0,1,0.0,1.0
33,33,0.18858012544432012,0.2,1.0,342.0,960.0,1.0,1368.0,1,0.0,1.0
34,34,0.19737829744102864,0.2,1.0,344.0,707.0,1.0,649.0,1,0.0,1.0
35,35,0.027415343939762415,0.0,1.0,385.0,841.0,0.0,3774.0,0,0.0,0.0
36,36,0.7074408722323092,0.7,1.0,382.0,838.0,1.0,190.0,1,0.0,1.0
37,37,-0.724171796611152,-0.7,0.0,307.0,786.0,0.0,177.0,1,0.0,0.0
38,38,-0.8829796254082544,-0.9,1.0,289.0,813.0,1.0,218.0,1,1.0,0.0
39,39,0.4711325763741242,0.5,0.0,376.0,914.0,0.0,290.0,1,1.0,1.0
40,40,0.4353121861294694,0.4,1.0,311.0,876.0,1.0,233.0,1,0.0,1.0
41,41,-0.8074448860111778,-0.8,1.0,427.0,725.0,1.0,-342.0,1,1.0,0.0
42,42,0.28056248863782474,0.3,0.0,485.0,617.0,0.0,118.0,1,1.0,1.0
43,43,-0.0587469362467421,-0.1,1.0,395.0,577.0,1.0,2228.0,1,1.0,0.0
44,44,0.6984216993855287,0.7,0.0,257.0,572.0,0.0,91.0,1,1.0,1.0
45,45,0.6230111721239663,0.6,0.0,366.0,821.0,0.0,123.0,1,1.0,1.0
46,46,0.4370972134306129,0.4,0.0,460.0,923.0,0.0,147.0,1,1.0,1.0
47,47,-0.517743621762377,-0.5,0.0,311.0,631.0,0.0,238.0,1,0.0,0.0
48,48,-0.5048006524207993,-0.5,0.0,458.0,687.0,0.0,335.0,1,0.0,0.0
49,49,-0.7883898833336485,-0.8,1.0,370.0,587.0,1.0,233.0,1,1.0,0.0
50,50,0.621138982137626,0.6,1.0,431.0,700.0,1.0,169.0,1,0.0,1.0
51,51,-0.30906967955107323,-0.3,0.0,305.0,876.0,0.0,419.0,1,0.0,0.0
52,52,0.6886127990835519,0.7,1.0,485.0,517.0,0.0,-52.0,0,0.0,0.0
53,53,0.3179284097651528,0.3,0.0,274.0,502.0,0.0,264.0,1,1.0,1.0
54,54,0.7273318337618081,0.7,0.0,280.0,924.0,0.0,56.0,1,1.0,1.0
55,55,-0.2926312643189246,-0.3,1.0,337.0,686.0,1.0,1557.0,1,1.0,0.0
56,56,-0.8673680178775679,-0.9,1.0,482.0,582.0,1.0,136.0,1,1.0,0.0
57,57,0.3129360296152449,0.3,0.0,301.0,655.0,0.0,344.0,1,1.0,1.0
58,58,-0.758383175529041,-0.8,0.0,371.0,973.0,0.0,-74.0,1,0.0,0.0
59,59,-0.5865649851359918,-0.6,1.0,476.0,746.0,1.0,298.0,1,1.0,0.0
60,60,0.6901696584454088,0.7,0.0,341.0,872.0,0.0,137.0,1,1.0,1.0
61,61,-0.023229994389273423,-0.0,0.0,461.0,586.0,0.0,3953.0,1,0.0,0.0
62,62,-0.7490049271357996,-0.7,1.0,315.0,529.0,1.0,236.0,1,1.0,0.0
63,63,0.5307791629029043,0.5,0.0,385.0,547.0,0.0,168.0,1,1.0,1.0
64,64,0.48439678455888535,0.5,1.0,319.0,882.0,1.0,359.0,1,0.0,1.0
65,65,-0.04427123863676541,-0.0,1.0,332.0,791.0,1.0,3877.0,1,1.0,0.0
66,66,0.1958922742543866,0.2,1.0,381.0,599.0,1.0,680.0,1,0.0,1.0
67,67,-0.37039666773948743,-0.4,1.0,262.0,633.0,1.0,365.0,1,1.0,0.0
68,68,-0.8764549671860179,-0.9,0.0,313.0,890.0,0.0,337.0,1,0.0,0.0
69,69,-0.14213939796593988,-0.1,1.0,339.0,996.0,1.0,1845.0,1,1.0,0.0
70,70,-0.7420524451744701,-0.7,0.0,371.0,697.0,0.0,212.0,1,0.0,0.0
71,71,0.25441808309297487,0.3,0.0,275.0,887.0,0.0,118.0,1,1.0,1.0
72,72,-0.8982565936608686,-0.9,1.0,479.0,753.0,1.0,178.0,1,1.0,0.0
73,73,-0.6707083649336236,-0.7,0.0,497.0,775.0,0.0,128.0,1,0.0,0.0
74,74,0.7129536210367916,0.7,0.0,452.0,782.0,0.0,96.0,1,1.0,1.0
75,75,-0.12680097772943155,-0.1,0.0,410.0,647.0,0.0,2193.0,1,0.0,0.0
76,76,0.6319396049917477,0.6,1.0,343.0,923.0,1.0,184.0,1,0.0,1.0
77,77,0.4282667274891184,0.4,1.0,300.0,901.0,1.0,339.0,1,0.0,1.0
78,78,0.19303225907393917,0.2,1.0,394.0,877.0,1.0,469.0,1,0.0,1.0
79,79,0.8533223237400421,0.9,0.0,366.0,552.0,0.0,102.0,1,1.0,1.0
80,80,-0.012176122094171848,-0.0,1.0,463.0,991.0,1.0,3546.0,1,1.0,0.0
81,81,-0.5716235655432118,-0.6,1.0,260.0,884.0,1.0,-224.0,1,1.0,0.0
82,82,0.3587761164852271,0.4,0.0,269.0,685.0,0.0,306.0,1,1.0,1.0
83,83,-0.814095148860151,-0.8,0.0,436.0,666.0,0.0,308.0,1,0.0,0.0
84,84,-0.6183491971445233,-0.6,0.0,382.0,833.0,0.0,195.0,1,0.0,0.0
85,85,-0.6297914939071048,-0.6,0.0,462.0,626.0,0.0,382.0,1,0.0,0.0
86,86,0.3611278289819456,0.4,0.0,331.0,944.0,0.0,215.0,1,1.0,1.0
87,87,0.7414184005970851,0.7,1.0,267.0,808.0,1.0,145.0,1,0.0,1.0
88,88,-0.43495558085757063,-0.4,0.0,436.0,795.0,0.0,309.0,1,0.0,0.0
89,89,-0.055729773402518834,-0.1,1.0,346.0,947.0,1.0,3707.0,1,1.0,0.0
90,90,-0.8154390424193666,-0.8,0.0,331.0,671.0,0.0,438.0,1,0.0,0.0
91,91,0.5947730544685718,0.6,0.0,443.0,884.0,0.0,73.0,1,1.0,1.0
92,92,0.4397218059828575,0.4,0.0,450.0,664.0,0.0,176.0,1,1.0,1.0
93,93,0.6001125978029881,0.6,1.0,256.0,911.0,1.0,203.0,1,0.0,1.0
94,94,-0.7482301098717139,-0.7,1.0,370.0,847.0,1.0,133.0,1,1.0,0.0
95,95,0.5530911234181289,0.6,1.0,436.0,755.0,1.0,239.0,1,0.0,1.0
96,96,-0.7004477318445106,-0.7,0.0,446.0,915.0,0.0,199.0,1,0.0,0.0
97,97,-0.6447193689555064,-0.6,1.0,369.0,906.0,1.0,445.0,1,1.0,0.0
98,98,0.48298785753143114,0.5,1.0,444.0,540.0,1.0,76.0,1,0.0,1.0
99,99,-0.034360668934388605,-0.0,0.0,400.0,835.0,0.0,3765.0,1,0.0,0.0
100,100,0.5846907283433292,0.6,0.0,471.0,895.0,0.0,94.0,1,1.0,1.0
101,101,-0.5140754124338638,-0.5,0.0,349.0,628.0,0.0,463.0,1,0.0,0.0
102,102,0.5164726867853332,0.5,0.0,465.0,904.0,0.0,141.0,1,1.0,1.0
103,103,0.22094654576082162,0.2,1.0,422.0,687.0,1.0,411.0,1,0.0,1.0
104,104,-0.39324511354867075,-0.4,0.0,349.0,549.0,0.0,432.0,1,0.0,0.0
105,105,0.04411118405478898,0.0,0.0,372.0,636.0,0.0,2362.0,1,1.0,1.0
106,106,-0.19690630685937816,-0.2,0.0,483.0,965.0,0.0,132.0,1,0.0,0.0
107,107,0.6533922454375073,0.7,1.0,354.0,987.0,1.0,189.0,1,0.0,1.0
108,108,0.8024050289881793,0.8,0.0,380.0,547.0,0.0,113.0,1,1.0,1.0
109,109,0.25983665411591084,0.3,0.0,279.0,509.0,0.0,482.0,1,1.0,1.0
110,110,-0.6075401891684724,-0.6,0.0,407.0,858.0,0.0,205.0,1,0.0,0.0
111,111,-0.2959659826437694,-0.3,1.0,480.0,983.0,1.0,117.0,1,1.0,0.0
112,112,0.603214280629263,0.6,0.0,292.0,944.0,0.0,84.0,1,1.0,1.0
113,113,-0.1870271001578021,-0.2,0.0,485.0,856.0,0.0,229.0,1,0.0,0.0
114,114,0.48479483898675635,0.5,1.0,258.0,782.0,1.0,270.0,1,0.0,1.0
115,115,0.49121812440270596,0.5,0.0,398.0,502.0,0.0,20.0,1,1.0,1.0
116,116,0.8559861211285519,0.9,0.0,423.0,554.0,0.0,63.0,1,1.0,1.0
117,117,0.7640473076167499,0.8,1.0,260.0,838.0,1.0,72.0,1,0.0,1.0
118,118,-0.843707599533944,-0.8,1.0,414.0,518.0,1.0,168.0,1,1.0,0.0
119,119,-0.8835465885505878,-0.9,0.0,496.0,806.0,0.0,188.0,1,0.0,0.0
120,120,-0.03921639689317047,-0.0,1.0,456.0,951.0,1.0,3593.0,1,1.0,0.0
121,121,-0.12660194105374456,-0.1,0.0,419.0,990.0,1.0,-429.0,0,0.0,1.0
122,122,0.49115125062978715,0.5,1.0,278.0,869.0,1.0,223.0,1,0.0,1.0
123,123,-0.6284649983125772,-0.6,1.0,430.0,923.0,1.0,257.0,1,1.0,0.0
124,124,-0.1377643256300758,-0.1,0.0,331.0,656.0,0.0,2583.0,1,0.0,0.0
125,125,0.33301948786479885,0.3,0.0,337.0,613.0,0.0,100.0,1,1.0,1.0
126,126,0.21845534730111826,0.2,0.0,307.0,975.0,0.0,1098.0,1,1.0,1.0
127,127,-0.06120888896088439,-0.1,0.0,354.0,916.0,0.0,1490.0,1,0.0,0.0
128,128,0.6554345812014896,0.7,1.0,385.0,999.0,1.0,106.0,1,0.0,1.0
129,129,-0.07159785034958122,-0.1,0.0,457.0,578.0,0.0,1305.0,1,0.0,0.0
130,130,0.3856626728955802,0.4,1.0,273.0,898.0,1.0,279.0,1,0.0,1.0
131,131,-0.88956937949998,-0.9,0.0,283.0,926.0,0.0,81.0,1,0.0,0.0
132,132,-0.6341420526830388,-0.6,1.0,459.0,756.0,1.0,125.0,1,1.0,0.0
133,133,-0.6501741616001471,-0.7,0.0,353.0,803.0,0.0,54.0,1,0.0,0.0
134,134,-0.22835011590548793,-0.2,1.0,422.0,523.0,1.0,525.0,1,1.0,0.0
135,135,-0.4251686978578747,-0.4,1.0,330.0,846.0,1.0,254.0,1,1.0,0.0
136,136,0.5361551384784448,0.5,0.0,316.0,573.0,0.0,161.0,1,1.0,1.0
137,137,-0.0515275042454314,-0.1,1.0,265.0,888.0,1.0,3367.0,1,1.0,0.0
138,138,-0.7112352872923338,-0.7,1.0,408.0,617.0,1.0,365.0,1,1.0,0.0
139,139,0.3581133351428195,0.4,1.0,385.0,839.0,1.0,346.0,1,0.0,1.0
140,140,-0.22661331946476038,-0.2,1.0,494.0,924.0,1.0,942.0,1,1.0,0.0
141,141,0.4697447838669867,0.5,0.0,380.0,837.0,0.0,73.0,1,1.0,1.0
142,142,-0.7131754363931643,-0.7,1.0,377.0,777.0,1.0,176.0,1,1.0,0.0
143,143,0.7385034925594075,0.7,1.0,441.0,642.0,1.0,157.0,1,0.0,1.0
144,144,-0.22583601071378911,-0.2,0.0,371.0,595.0,0.0,1064.0,1,0.0,0.0
145,145,0.225707537734965,0.2,0.0,384.0,732.0,0.0,394.0,1,1.0,1.0
146,146,-0.7805507948181803,-0.8,1.0,379.0,514.0,1.0,197.0,1,1.0,0.0
147,147,0.19466257365976902,0.2,0.0,306.0,848.0,0.0,446.0,1,1.0,1.0
148,148,-0.6709354756124983,-0.7,1.0,307.0,644.0,1.0,189.0,1,1.0,0.0
149,149,-0.19152061171279833,-0.2,1.0,277.0,587.0,1.0,306.0,1,1.0,0.0
150,150,-0.0991117814465291,-0.1,1.0,459.0,750.0,1.0,1411.0,1,1.0,0.0
151,151,-0.6705757692335195,-0.7,0.0,495.0,780.0,0.0,225.0,1,0.0,0.0
152,152,0.36612168051324157,0.4,0.0,360.0,900.0,0.0,240.0,1,1.0,1.0
153,153,0.09124878895771238,0.1,0.0,475.0,699.0,0.0,276.0,1,1.0,1.0
154,154,0.15824052656169585,0.2,1.0,478.0,726.0,1.0,656.0,1,0.0,1.0
155,155,0.07423548398882673,0.1,1.0,315.0,791.0,1.0,634.0,1,0.0,1.0
156,156,0.35912589093726266,0.4,0.0,257.0,859.0,0.0,164.0,1,1.0,1.0
157,157,-0.5582148375050626,-0.6,1.0,289.0,949.0,1.0,142.0,1,1.0,0.0
158,158,-0.04675445379482923,-0.0,1.0,447.0,891.0,1.0,3662.0,1,1.0,0.0
159,159,-0.8906492259372972,-0.9,0.0,259.0,569.0,0.0,222.0,1,0.0,0.0
160,160,-0.19204084815607592,-0.2,0.0,281.0,662.0,0.0,597.0,1,0.0,0.0
161,161,0.44605063305787807,0.4,0.0,399.0,570.0,1.0,-249.0,0,1.0,0.0
162,162,0.4351597811849591,0.4,1.0,470.0,665.0,1.0,145.0,1,0.0,1.0
163,163,-0.35263655576481656,-0.4,1.0,372.0,961.0,1.0,607.0,1,1.0,0.0
164,164,-0.2831070029565236,-0.3,0.0,346.0,985.0,0.0,429.0,1,0.0,0.0
165,165,-0.6836105130593395,-0.7,1.0,452.0,691.0,1.0,317.0,1,1.0,0.0
166,166,0.6477700472616704,0.6,0.0,327.0,882.0,1.0,11.0,0,1.0,0.0
167,167,0.5863506846242247,0.6,1.0,484.0,906.0,1.0,180.0,1,0.0,1.0
168,168,0.023788407887885277,0.0,0.0,425.0,743.0,0.0,1142.0,1,1.0,1.0
169,169,-0.4070957784899426,-0.4,1.0,334.0,814.0,1.0,452.0,1,1.0,0.0
170,170,-0.5218776621879444,-0.5,0.0,479.0,664.0,0.0,287.0,1,0.0,0.0
171,171,0.4326349130468178,0.4,0.0,280.0,710.0,0.0,170.0,1,1.0,1.0
172,172,0.830430165555763,0.8,1.0,402.0,731.0,1.0,47.0,1,0.0,1.0
173,173,0.674779806059227,0.7,0.0,298.0,714.0,0.0,58.0,1,1.0,1.0
174,174,0.3619142098639644,0.4,1.0,353.0,989.0,1.0,368.0,1,0.0,1.0
175,175,-0.500746220766384,-0.5,1.0,345.0,950.0,1.0,195.0,1,1.0,0.0
176,176,-0.812325635674047,-0.8,0.0,352.0,660.0,0.0,268.0,1,0.0,0.0
177,177,0.11495483298581088,0.1,1.0,438.0,690.0,1.0,1192.0,1,0.0,1.0
178,178,0.38920230851393944,0.4,1.0,290.0,537.0,1.0,183.0,1,0.0,1.0
179,179,-0.6980192275339107,-0.7,1.0,334.0,756.0,1.0,350.0,1,1.0,0.0
180,180,-0.3988766360557465,-0.4,1.0,437.0,653.0,1.0,490.0,1,1.0,0.0
181,181,0.8618155391850332,0.9,0.0,460.0,994.0,0.0,106.0,1,1.0,1.0
182,182,-0.8820618449537412,-0.9,0.0,499.0,930.0,0.0,251.0,1,0.0,0.0
183,183,0.0861838762797027,0.1,1.0,295.0,684.0,1.0,951.0,1,0.0,1.0
184,184,0.8513952952018574,0.9,1.0,317.0,624.0,1.0,99.0,1,0.0,1.0
185,185,-0.6015645304080086,-0.6,0.0,320.0,660.0,0.0,260.0,1,0.0,0.0
186,186,-0.8866373419035273,-0.9,0.0,414.0,583.0,0.0,273.0,1,0.0,0.0
187,187,0.12192247529681055,0.1,1.0,382.0,833.0,1.0,2245.0,1,0.0,1.0
188,188,-0.7025532630135458,-0.7,1.0,250.0,747.0,1.0,103.0,1,1.0,0.0
189,189,0.10989807772880644,0.1,0.0,448.0,863.0,0.0,689.0,1,1.0,1.0
190,190,-0.27797192765903933,-0.3,1.0,490.0,811.0,1.0,729.0,1,1.0,0.0
191,191,0.4998663160967035,0.5,1.0,325.0,640.0,1.0,305.0,1,0.0,1.0
192,192,-0.006457515257227819,-0.0,1.0,250.0,689.0,0.0,4061.0,0,1.0,1.0
193,193,-0.752295720752225,-0.8,0.0,308.0,882.0,0.0,0.0,1,0.0,0.0
194,194,0.341496838927312,0.3,0.0,357.0,748.0,0.0,145.0,1,1.0,1.0
195,195,0.7649324261859382,0.8,0.0,414.0,915.0,0.0,81.0,1,1.0,1.0
196,196,0.5854283982816947,0.6,0.0,405.0,655.0,0.0,110.0,1,1.0,1.0
197,197,-0.6075466148777389,-0.6,1.0,331.0,891.0,1.0,358.0,1,1.0,0.0
198,198,0.07826942833051687,0.1,0.0,254.0,757.0,0.0,1879.0,1,1.0,1.0
199,199,-0.6057788774345024,-0.6,0.0,327.0,830.0,0.0,273.0,1,0.0,0.0
200,200,0.6488800377092817,0.6,1.0,313.0,510.0,1.0,67.0,1,0.0,1.0
201,201,-0.6194014785820587,-0.6,0.0,290.0,797.0,0.0,273.0,1,0.0,0.0
202,202,0.23352784716580743,0.2,0.0,407.0,962.0,0.0,271.0,1,1.0,1.0
203,203,0.4304609475177906,0.4,0.0,421.0,778.0,0.0,131.0,1,1.0,1.0
204,204,-0.30677780404048993,-0.3,1.0,326.0,579.0,1.0,865.0,1,1.0,0.0
205,205,-0.27105022484090524,-0.3,0.0,380.0,919.0,0.0,481.0,1,0.0,0.0
206,206,0.06623294344032049,0.1,0.0,309.0,817.0,0.0,394.0,1,1.0,1.0
207,207,0.49245097900710666,0.5,1.0,317.0,895.0,1.0,158.0,1,0.0,1.0
208,208,-0.218040696612114,-0.2,0.0,495.0,518.0,0.0,387.0,1,0.0,0.0
209,209,0.15162253861139063,0.2,0.0,255.0,784.0,0.0,1181.0,1,1.0,1.0
210,210,0.8472131978774579,0.8,1.0,441.0,512.0,1.0,97.0,1,0.0,1.0
211,211,-0.24065274501085565,-0.2,1.0,397.0,975.0,1.0,1038.0,1,1.0,0.0
212,212,-0.15787192097567182,-0.2,0.0,286.0,609.0,0.0,1015.0,1,0.0,0.0
213,213,-0.5060256268267447,-0.5,0.0,413.0,787.0,0.0,490.0,1,0.0,0.0
214,214,0.47129403862113184,0.5,1.0,260.0,578.0,1.0,172.0,1,0.0,1.0
215,215,0.5338503429215423,0.5,0.0,343.0,696.0,0.0,81.0,1,1.0,1.0
216,216,-0.2065121338220236,-0.2,1.0,417.0,858.0,1.0,555.0,1,1.0,0.0
217,217,0.07318311168775304,0.1,1.0,449.0,589.0,1.0,3962.0,1,0.0,1.0
218,218,-0.356771565441908,-0.4,1.0,425.0,691.0,1.0,404.0,1,1.0,0.0
219,219,0.582915748438725,0.6,0.0,297.0,784.0,0.0,169.0,1,1.0,1.0
220,220,-0.6570961040792255,-0.7,1.0,494.0,553.0,1.0,203.0,1,1.0,0.0
221,221,0.3390470298455238,0.3,0.0,264.0,810.0,1.0,-494.0,0,1.0,0.0
222,222,-0.7395931393565846,-0.7,1.0,397.0,564.0,1.0,159.0,1,1.0,0.0
223,223,0.10612408372154458,0.1,1.0,405.0,509.0,1.0,3996.0,1,0.0,1.0
224,224,-0.10184252138129068,-0.1,0.0,277.0,716.0,0.0,2367.0,1,0.0,0.0
225,225,0.6077350887994691,0.6,1.0,259.0,908.0,1.0,103.0,1,0.0,1.0
226,226,-0.8024634398687258,-0.8,0.0,476.0,894.0,0.0,170.0,1,0.0,0.0
227,227,0.4878985069716276,0.5,1.0,329.0,768.0,1.0,223.0,1,0.0,1.0
228,228,-0.5709969923452431,-0.6,0.0,251.0,632.0,0.0,157.0,1,0.0,0.0
229,229,0.09438857074948992,0.1,1.0,430.0,757.0,1.0,1193.0,1,0.0,1.0
230,230,0.5914737537275184,0.6,0.0,365.0,666.0,0.0,209.0,1,1.0,1.0
231,231,0.19393357601983185,0.2,0.0,372.0,966.0,0.0,212.0,1,1.0,1.0
232,232,0.4714894126922583,0.5,1.0,373.0,744.0,1.0,213.0,1,0.0,1.0
233,233,-0.1835987263997353,-0.2,1.0,490.0,963.0,1.0,517.0,1,1.0,0.0
234,234,0.5736364702035711,0.6,1.0,433.0,527.0,1.0,260.0,1,0.0,1.0
235,235,0.3932534360297161,0.4,0.0,435.0,919.0,0.0,136.0,1,1.0,1.0
236,236,-0.7134122814466181,-0.7,0.0,471.0,592.0,0.0,237.0,1,0.0,0.0
237,237,0.8985040941019627,0.9,0.0,373.0,968.0,0.0,59.0,1,1.0,1.0
238,238,-0.06999276279937239,-0.1,0.0,376.0,947.0,0.0,1787.0,1,0.0,0.0
239,239,0.6754818484007857,0.7,1.0,432.0,776.0,1.0,112.0,1,0.0,1.0
240,240,0.348304875897537,0.3,1.0,273.0,854.0,1.0,123.0,1,0.0,1.0
241,241,0.6597764134163101,0.7,0.0,344.0,726.0,0.0,110.0,1,1.0,1.0
242,242,0.8415829533778408,0.8,0.0,466.0,793.0,0.0,91.0,1,1.0,1.0
243,243,-0.3259991774051304,-0.3,1.0,438.0,609.0,1.0,583.0,1,1.0,0.0
244,244,0.27087036716494894,0.3,0.0,497.0,719.0,0.0,294.0,1,1.0,1.0
245,245,-0.03451829140823548,-0.0,0.0,417.0,577.0,1.0,4006.0,0,0.0,1.0
246,246,-0.7603528493719391,-0.8,1.0,381.0,905.0,1.0,154.0,1,1.0,0.0
247,247,-0.45071693687714315,-0.5,0.0,267.0,790.0,0.0,-487.0,1,0.0,0.0
248,248,0.19439681279796928,0.2,1.0,459.0,758.0,1.0,413.0,1,0.0,1.0
249,249,0.3664531061524846,0.4,0.0,443.0,518.0,0.0,249.0,1,1.0,1.0
250,250,-0.23521537431117545,-0.2,1.0,312.0,929.0,1.0,1029.0,1,1.0,0.0
251,251,-0.005036719933949718,-0.0,0.0,299.0,517.0,0.0,4184.0,1,0.0,0.0
252,252,0.17145169434199647,0.2,0.0,308.0,690.0,0.0,212.0,1,1.0,1.0
253,253,-0.13488353157504096,-0.1,1.0,278.0,641.0,1.0,581.0,1,1.0,0.0
254,254,-0.08378671393343073,-0.1,1.0,354.0,530.0,1.0,946.0,1,1.0,0.0
255,255,0.7825041188198038,0.8,0.0,402.0,672.0,0.0,96.0,1,1.0,1.0
256,256,-0.7872232924282201,-0.8,1.0,415.0,861.0,1.0,204.0,1,1.0,0.0
257,257,0.8566813831694141,0.9,1.0,310.0,671.0,1.0,69.0,1,0.0,1.0
258,258,-0.8994312704434145,-0.9,0.0,395.0,671.0,0.0,314.0,1,0.0,0.0
259,259,-0.7136675504396873,-0.7,0.0,359.0,534.0,0.0,277.0,1,0.0,0.0
260,260,-0.49110469497137654,-0.5,1.0,482.0,769.0,1.0,359.0,1,1.0,0.0
261,261,0.8921540322755867,0.9,0.0,466.0,599.0,0.0,125.0,1,1.0,1.0
262,262,-0.3739605651283028,-0.4,0.0,477.0,584.0,0.0,259.0,1,0.0,0.0
263,263,0.763647967406868,0.8,0.0,386.0,750.0,0.0,104.0,1,1.0,1.0
264,264,-0.510546038253242,-0.5,1.0,430.0,819.0,1.0,251.0,1,1.0,0.0
265,265,-0.04957018352673881,-0.0,0.0,255.0,807.0,0.0,318.0,1,0.0,0.0
266,266,0.32238262746073787,0.3,0.0,251.0,796.0,0.0,203.0,1,1.0,1.0
267,267,-0.08515537989028477,-0.1,0.0,363.0,983.0,0.0,1194.0,1,0.0,0.0
268,268,0.573691471188389,0.6,1.0,303.0,557.0,1.0,150.0,1,0.0,1.0
269,269,-0.40351645818514265,-0.4,1.0,442.0,768.0,1.0,850.0,1,1.0,0.0
270,270,-0.7710612469675339,-0.8,1.0,413.0,509.0,1.0,228.0,1,1.0,0.0
271,271,0.06178833106148651,0.1,1.0,439.0,898.0,1.0,3663.0,1,0.0,1.0
272,272,-0.8125057132737914,-0.8,0.0,379.0,943.0,0.0,188.0,1,0.0,0.0
273,273,0.8665705618880325,0.9,0.0,445.0,502.0,0.0,83.0,1,1.0,1.0
274,274,-0.6144616302272272,-0.6,0.0,330.0,590.0,0.0,40.0,1,0.0,0.0
275,275,0.3763034599575318,0.4,0.0,292.0,970.0,0.0,158.0,1,1.0,1.0
276,276,0.2784885167916463,0.3,1.0,252.0,863.0,1.0,305.0,1,0.0,1.0
277,277,-0.4244852495671001,-0.4,0.0,338.0,541.0,0.0,191.0,1,0.0,0.0
278,278,0.4981615764056263,0.5,0.0,394.0,791.0,0.0,225.0,1,1.0,1.0
279,279,-0.2733388011985658,-0.3,1.0,282.0,707.0,1.0,721.0,1,1.0,0.0
280,280,0.6516659836014403,0.7,1.0,461.0,579.0,1.0,150.0,1,0.0,1.0
281,281,0.5742302265012306,0.6,1.0,369.0,508.0,1.0,63.0,1,0.0,1.0
282,282,-0.4950034917356213,-0.5,0.0,425.0,541.0,0.0,334.0,1,0.0,0.0
283,283,0.8444871574328913,0.8,1.0,340.0,524.0,1.0,146.0,1,0.0,1.0
284,284,-0.5504883438141785,-0.6,0.0,316.0,599.0,0.0,145.0,1,0.0,0.0
285,285,0.5541162714797488,0.6,0.0,341.0,544.0,0.0,155.0,1,1.0,1.0
286,286,-0.6833539009860593,-0.7,1.0,303.0,947.0,1.0,-400.0,1,1.0,0.0
287,287,-0.17268693078959163,-0.2,0.0,329.0,889.0,0.0,1172.0,1,0.0,0.0
288,288,0.848167265674519,0.8,0.0,342.0,939.0,0.0,109.0,1,1.0,1.0
289,289,-0.7293860937115058,-0.7,1.0,397.0,816.0,1.0,417.0,1,1.0,0.0
290,290,0.7809889587504922,0.8,1.0,482.0,952.0,1.0,126.0,1,0.0,1.0
291,291,-0.634127248864777,-0.6,1.0,310.0,514.0,1.0,196.0,1,1.0,0.0
292,292,-0.8968302251892739,-0.9,1.0,289.0,666.0,1.0,-345.0,1,1.0,0.0
293,293,0.8516696164720515,0.9,1.0,251.0,822.0,1.0,67.0,1,0.0,1.0
294,294,-0.13928484256016305,-0.1,0.0,338.0,500.0,0.0,392.0,1,0.0,0.0
295,295,-0.262430973589977,-0.3,0.0,459.0,746.0,0.0,195.0,1,0.0,0.0
296,296,0.7261689023794161,0.7,1.0,324.0,674.0,1.0,142.0,1,0.0,1.0
297,297,0.7957686799059055,0.8,0.0,349.0,684.0,1.0,-403.0,0,1.0,0.0
298,298,-0.5410911124129711,-0.5,1.0,465.0,931.0,1.0,594.0,1,1.0,0.0
299,299,-0.1333198503407017,-0.1,0.0,356.0,777.0,0.0,1497.0,1,0.0,0.0
300,300,0.02608417758741699,0.0,0.0,466.0,686.0,0.0,2128.0,1,1.0,1.0
301,301,0.47953797691731015,0.5,0.0,265.0,744.0,0.0,271.0,1,1.0,1.0
302,302,0.49889585387330493,0.5,0.0,279.0,794.0,0.0,217.0,1,1.0,1.0
303,303,0.31044095452073195,0.3,1.0,456.0,982.0,1.0,262.0,1,0.0,1.0
304,304,-0.8451705754803044,-0.8,0.0,408.0,614.0,0.0,188.0,1,0.0,0.0
305,305,-0.34214660072149805,-0.3,0.0,395.0,968.0,0.0,207.0,1,0.0,0.0
306,306,-0.028801254182313052,-0.0,1.0,390.0,594.0,1.0,1476.0,1,1.0,0.0
307,307,-0.5739582298865007,-0.6,1.0,360.0,628.0,0.0,-338.0,0,1.0,1.0
308,308,-0.607773367484842,-0.6,1.0,304.0,722.0,1.0,194.0,1,1.0,0.0
309,309,0.6604575293588063,0.7,0.0,323.0,801.0,0.0,136.0,1,1.0,1.0
310,310,0.13158509245568684,0.1,1.0,399.0,936.0,0.0,-475.0,0,0.0,0.0
311,311,-0.38642722578080246,-0.4,1.0,339.0,623.0,1.0,98.0,1,1.0,0.0
312,312,0.7121705958641374,0.7,0.0,451.0,675.0,0.0,154.0,1,1.0,1.0
313,313,-0.6047215423782653,-0.6,1.0,321.0,615.0,1.0,224.0,1,1.0,0.0
314,314,0.35496657637299955,0.4,1.0,348.0,886.0,1.0,196.0,1,0.0,1.0
315,315,-0.5211027779782492,-0.5,1.0,484.0,855.0,1.0,211.0,1,1.0,0.0
316,316,-0.4380169605441862,-0.4,1.0,467.0,936.0,1.0,-293.0,1,1.0,0.0
317,317,0.8467825223154178,0.8,0.0,263.0,633.0,0.0,24.0,1,1.0,1.0
318,318,-0.6265534644126585,-0.6,1.0,411.0,553.0,1.0,256.0,1,1.0,0.0
319,319,0.6685761210091227,0.7,0.0,257.0,556.0,0.0,127.0,1,1.0,1.0
320,320,0.2220331979521203,0.2,0.0,489.0,625.0,0.0,386.0,1,1.0,1.0
321,321,-0.6999261381553602,-0.7,0.0,350.0,646.0,0.0,434.0,1,0.0,0.0
322,322,0.0016944836105663441,0.0,1.0,408.0,607.0,0.0,3985.0,0,0.0,0.0
323,323,-0.04170943497345092,-0.0,1.0,440.0,538.0,1.0,4022.0,1,1.0,0.0
324,324,-0.031177449417804426,-0.0,1.0,387.0,771.0,0.0,1362.0,0,1.0,1.0
325,325,-0.7147149919866347,-0.7,1.0,488.0,832.0,1.0,-430.0,1,1.0,0.0
326,326,0.2849417559971138,0.3,0.0,426.0,688.0,0.0,146.0,1,1.0,1.0
327,327,0.8629253226028789,0.9,1.0,381.0,722.0,1.0,97.0,1,0.0,1.0
328,328,-0.8167053525131608,-0.8,0.0,295.0,543.0,0.0,-338.0,1,0.0,0.0
329,329,0.31302091571816415,0.3,0.0,460.0,970.0,0.0,110.0,1,1.0,1.0
330,330,0.8966659076830784,0.9,1.0,392.0,883.0,1.0,145.0,1,0.0,1.0
331,331,-0.06067002541118516,-0.1,0.0,263.0,946.0,0.0,-629.0,1,0.0,0.0
332,332,-0.05498080156684593,-0.1,0.0,279.0,965.0,0.0,636.0,1,0.0,0.0
333,333,-0.23608159984141763,-0.2,1.0,349.0,681.0,1.0,520.0,1,1.0,0.0
334,334,-0.2526771499026945,-0.3,1.0,393.0,758.0,1.0,389.0,1,1.0,0.0
335,335,-0.26142915151978574,-0.3,1.0,334.0,666.0,1.0,430.0,1,1.0,0.0
336,336,-0.26332378786305644,-0.3,1.0,348.0,598.0,1.0,954.0,1,1.0,0.0
337,337,-0.014392979328736843,-0.0,0.0,437.0,568.0,0.0,-65.0,1,0.0,0.0
338,338,0.5959790893071891,0.6,0.0,444.0,601.0,0.0,215.0,1,1.0,1.0
339,339,-0.7532250371023311,-0.8,1.0,289.0,638.0,1.0,243.0,1,1.0,0.0
340,340,0.696419861159376,0.7,1.0,300.0,929.0,1.0,131.0,1,0.0,1.0
341,341,-0.5267813886045061,-0.5,0.0,360.0,950.0,0.0,590.0,1,0.0,0.0
342,342,0.3308602480754489,0.3,1.0,320.0,814.0,1.0,326.0,1,0.0,1.0
343,343,-0.09279590006563143,-0.1,1.0,487.0,550.0,1.0,1563.0,1,1.0,0.0
344,344,-0.35741203182941506,-0.4,0.0,480.0,986.0,0.0,534.0,1,0.0,0.0
345,345,-0.30364337983188516,-0.3,1.0,375.0,792.0,1.0,313.0,1,1.0,0.0
346,346,-0.04222086408901793,-0.0,1.0,372.0,842.0,1.0,3786.0,1,1.0,0.0
347,347,-0.3226665508331289,-0.3,1.0,325.0,907.0,1.0,838.0,1,1.0,0.0
348,348,0.03160254070632107,0.0,1.0,325.0,642.0,1.0,4033.0,1,0.0,1.0
349,349,-0.7552847496840402,-0.8,1.0,495.0,797.0,1.0,388.0,1,1.0,0.0
350,350,-0.8486831715411133,-0.8,1.0,306.0,534.0,1.0,300.0,1,1.0,0.0
351,351,-0.8673998334318336,-0.9,1.0,318.0,514.0,1.0,168.0,1,1.0,0.0
352,352,-0.8122470426533679,-0.8,1.0,497.0,755.0,1.0,478.0,1,1.0,0.0
353,353,0.72277125042579,0.7,1.0,489.0,604.0,1.0,87.0,1,0.0,1.0
354,354,-0.12762649282215943,-0.1,1.0,279.0,844.0,1.0,1487.0,1,1.0,0.0
355,355,-0.45734310424894264,-0.5,1.0,364.0,784.0,1.0,312.0,1,1.0,0.0
356,356,0.3294089782780881,0.3,1.0,328.0,941.0,1.0,161.0,1,0.0,1.0
357,357,0.7376593251864846,0.7,0.0,307.0,810.0,0.0,153.0,1,1.0,1.0
358,358,-0.18525793106821575,-0.2,1.0,258.0,901.0,1.0,751.0,1,1.0,0.0
359,359,0.06097252778047746,0.1,0.0,376.0,706.0,0.0,448.0,1,1.0,1.0
360,360,-0.49819381163662807,-0.5,1.0,499.0,650.0,1.0,341.0,1,1.0,0.0
361,361,-0.4561739675404726,-0.5,0.0,323.0,945.0,0.0,252.0,1,0.0,0.0
362,362,-0.742683531327808,-0.7,1.0,285.0,829.0,1.0,226.0,1,1.0,0.0
363,363,0.4667948313066871,0.5,1.0,391.0,767.0,0.0,-408.0,0,0.0,0.0
364,364,0.8713881204605193,0.9,1.0,476.0,760.0,1.0,54.0,1,0.0,1.0
365,365,0.3467781261818611,0.3,1.0,366.0,948.0,1.0,406.0,1,0.0,1.0
366,366,0.4995539586617618,0.5,1.0,428.0,778.0,1.0,294.0,1,0.0,1.0
367,367,0.3555113366775643,0.4,0.0,416.0,525.0,0.0,469.0,1,1.0,1.0
368,368,0.4656875419216885,0.5,1.0,477.0,690.0,1.0,233.0,1,0.0,1.0
369,369,0.43252409878784703,0.4,1.0,423.0,656.0,1.0,151.0,1,0.0,1.0
370,370,0.20772149266472184,0.2,0.0,367.0,800.0,0.0,143.0,1,1.0,1.0
371,371,0.24363607703953638,0.2,0.0,346.0,696.0,0.0,418.0,1,1.0,1.0
372,372,0.768997003183988,0.8,0.0,284.0,948.0,0.0,158.0,1,1.0,1.0
373,373,-0.1490814870715108,-0.1,0.0,490.0,741.0,0.0,549.0,1,0.0,0.0
374,374,-0.4250376020732212,-0.4,0.0,433.0,857.0,0.0,230.0,1,0.0,0.0
375,375,-0.7578075216189066,-0.8,1.0,495.0,656.0,1.0,89.0,1,1.0,0.0
376,376,0.30403538983579426,0.3,0.0,497.0,701.0,0.0,132.0,1,1.0,1.0
377,377,-0.5130498554103166,-0.5,0.0,465.0,708.0,0.0,267.0,1,0.0,0.0
378,378,-0.5004782494599245,-0.5,0.0,368.0,815.0,0.0,297.0,1,0.0,0.0
379,379,0.6731381741124923,0.7,1.0,479.0,840.0,1.0,121.0,1,0.0,1.0
380,380,-0.6402493584342621,-0.6,1.0,309.0,943.0,1.0,178.0,1,1.0,0.0
381,381,-0.1596267788238308,-0.2,1.0,287.0,577.0,1.0,2466.0,1,1.0,0.0
382,382,0.1433564104211814,0.1,0.0,400.0,886.0,0.0,524.0,1,1.0,1.0
383,383,-0.09537065570405279,-0.1,0.0,276.0,987.0,0.0,157.0,1,0.0,0.0
384,384,-0.019633078275457017,-0.0,0.0,253.0,908.0,1.0,3839.0,0,0.0,1.0
385,385,0.4106023643114477,0.4,1.0,470.0,617.0,0.0,-37.0,0,0.0,0.0
386,386,-0.44764792890179606,-0.4,0.0,494.0,789.0,0.0,197.0,1,0.0,0.0
387,387,-0.3424188035961073,-0.3,1.0,323.0,943.0,1.0,284.0,1,1.0,0.0
388,388,0.4370558982616565,0.4,0.0,494.0,984.0,0.0,82.0,1,1.0,1.0
389,389,0.7784286158546135,0.8,0.0,432.0,940.0,0.0,88.0,1,1.0,1.0
390,390,-0.7198469469979771,-0.7,0.0,348.0,700.0,0.0,192.0,1,0.0,0.0
391,391,-0.23038011406719017,-0.2,0.0,401.0,830.0,0.0,849.0,1,0.0,0.0
392,392,-0.7706948595275316,-0.8,0.0,379.0,890.0,0.0,141.0,1,0.0,0.0
393,393,-0.5779564360949307,-0.6,1.0,288.0,920.0,1.0,252.0,1,1.0,0.0
394,394,0.7443600697350722,0.7,1.0,276.0,928.0,1.0,106.0,1,0.0,1.0
395,395,0.0988395264367724,0.1,0.0,466.0,842.0,0.0,492.0,1,1.0,1.0
396,396,-0.8984458645682536,-0.9,0.0,363.0,776.0,0.0,121.0,1,0.0,0.0
397,397,0.04318674522823507,0.0,1.0,394.0,619.0,1.0,3847.0,1,0.0,1.0
398,398,-0.4613852797153869,-0.5,0.0,428.0,903.0,0.0,219.0,1,0.0,0.0
399,399,0.6650742730714311,0.7,0.0,300.0,632.0,0.0,68.0,1,1.0,1.0
400,400,-0.4139971836580611,-0.4,0.0,266.0,716.0,0.0,168.0,1,0.0,0.0
401,401,-0.8670479027904555,-0.9,0.0,419.0,753.0,0.0,168.0,1,0.0,0.0
402,402,-0.5620959472277214,-0.6,0.0,411.0,587.0,0.0,352.0,1,0.0,0.0
403,403,0.23676421214588672,0.2,1.0,431.0,524.0,1.0,275.0,1,0.0,1.0
404,404,-0.25756569979896826,-0.3,0.0,491.0,622.0,0.0,947.0,1,0.0,0.0
405,405,-0.1844134403676383,-0.2,1.0,419.0,742.0,1.0,-631.0,1,1.0,0.0
406,406,0.244272972907429,0.2,0.0,294.0,540.0,0.0,156.0,1,1.0,1.0
407,407,0.5305188808387918,0.5,0.0,292.0,879.0,0.0,199.0,1,1.0,1.0
408,408,-0.36333990599106103,-0.4,0.0,402.0,502.0,0.0,616.0,1,0.0,0.0
409,409,-0.4454280965525088,-0.4,1.0,386.0,748.0,1.0,186.0,1,1.0,0.0
410,410,-0.24544425879775644,-0.2,0.0,311.0,823.0,0.0,456.0,1,0.0,0.0
411,411,-0.26074966439448966,-0.3,0.0,350.0,816.0,0.0,204.0,1,0.0,0.0
412,412,0.6222779371504202,0.6,1.0,413.0,720.0,1.0,217.0,1,0.0,1.0
413,413,-0.23706526067918954,-0.2,0.0,444.0,632.0,0.0,134.0,1,0.0,0.0
414,414,0.6373041706831485,0.6,1.0,272.0,528.0,1.0,10.0,1,0.0,1.0
415,415,0.3697021372806045,0.4,0.0,300.0,954.0,0.0,186.0,1,1.0,1.0
416,416,0.14261915345295384,0.1,0.0,498.0,749.0,0.0,473.0,1,1.0,1.0
417,417,-0.2527002066299112,-0.3,0.0,392.0,734.0,0.0,664.0,1,0.0,0.0
418,418,-0.130784857802134,-0.1,0.0,459.0,628.0,0.0,933.0,1,0.0,0.0
419,419,0.06556667105308123,0.1,1.0,402.0,598.0,1.0,4000.0,1,0.0,1.0
420,420,0.6978155952572046,0.7,1.0,395.0,995.0,1.0,170.0,1,0.0,1.0
421,421,-0.4814596251443881,-0.5,1.0,436.0,932.0,1.0,452.0,1,1.0,0.0
422,422,-0.026942566818515812,-0.0,1.0,337.0,561.0,0.0,4102.0,0,1.0,1.0
423,423,0.4726295470101066,0.5,0.0,348.0,959.0,0.0,143.0,1,1.0,1.0
424,424,0.6299379425108537,0.6,1.0,454.0,931.0,1.0,225.0,1,0.0,1.0
425,425,0.2938707010640297,0.3,0.0,481.0,808.0,0.0,241.0,1,1.0,1.0
426,426,-0.26438580307283666,-0.3,0.0,479.0,682.0,0.0,409.0,1,0.0,0.0
427,427,-0.5955034722759918,-0.6,1.0,276.0,509.0,1.0,225.0,1,1.0,0.0
428,428,0.13142814597477803,0.1,0.0,389.0,562.0,1.0,-271.0,0,1.0,0.0
429,429,-0.8256047764259765,-0.8,0.0,257.0,942.0,0.0,111.0,1,0.0,0.0
430,430,-0.3024284554494998,-0.3,1.0,276.0,786.0,1.0,498.0,1,1.0,0.0
431,431,0.5069275641503378,0.5,0.0,336.0,841.0,0.0,243.0,1,1.0,1.0
432,432,0.6626092291544031,0.7,1.0,309.0,594.0,1.0,197.0,1,0.0,1.0
433,433,0.5863497512171804,0.6,1.0,278.0,640.0,1.0,52.0,1,0.0,1.0
434,434,0.0540243808141746,0.1,0.0,422.0,827.0,0.0,1861.0,1,1.0,1.0
435,435,-0.6433822702047285,-0.6,1.0,341.0,870.0,1.0,379.0,1,1.0,0.0
436,436,0.661362281652533,0.7,1.0,493.0,688.0,1.0,159.0,1,0.0,1.0
437,437,-0.6433352924911925,-0.6,0.0,390.0,634.0,0.0,306.0,1,0.0,0.0
438,438,0.23187486458571993,0.2,1.0,433.0,535.0,1.0,592.0,1,0.0,1.0
439,439,0.8665159813378079,0.9,1.0,335.0,873.0,1.0,72.0,1,0.0,1.0
440,440,-0.2843250263886099,-0.3,1.0,454.0,776.0,1.0,250.0,1,1.0,0.0
441,441,-0.14600993152019193,-0.1,1.0,485.0,821.0,1.0,2504.0,1,1.0,0.0
442,442,-0.361062402263013,-0.4,0.0,483.0,563.0,0.0,344.0,1,0.0,0.0
443,443,-0.8633385837787106,-0.9,0.0,394.0,735.0,0.0,101.0,1,0.0,0.0
444,444,0.39159681386237144,0.4,0.0,358.0,702.0,0.0,160.0,1,1.0,1.0
445,445,0.8502684245452273,0.9,0.0,415.0,973.0,0.0,42.0,1,1.0,1.0
446,446,-0.05749220981340519,-0.1,0.0,411.0,764.0,0.0,-45.0,1,0.0,0.0
447,447,-0.24236274139571923,-0.2,1.0,262.0,578.0,1.0,280.0,1,1.0,0.0
448,448,0.7299037374749507,0.7,1.0,372.0,570.0,1.0,248.0,1,0.0,1.0
449,449,0.24187559790542024,0.2,0.0,331.0,773.0,0.0,146.0,1,1.0,1.0
450,450,-0.17592941609282764,-0.2,1.0,412.0,906.0,1.0,222.0,1,1.0,0.0
451,451,0.8085523264597122,0.8,1.0,449.0,866.0,1.0,155.0,1,0.0,1.0
452,452,0.5537304100626544,0.6,1.0,339.0,554.0,1.0,137.0,1,0.0,1.0
453,453,-0.028030266694016204,-0.0,0.0,299.0,872.0,0.0,3829.0,1,0.0,0.0
454,454,-0.22080469524994595,-0.2,0.0,325.0,972.0,0.0,313.0,1,0.0,0.0
455,455,0.2875754345925866,0.3,0.0,398.0,979.0,0.0,183.0,1,1.0,1.0
456,456,0.7175736126527591,0.7,0.0,454.0,607.0,0.0,269.0,1,1.0,1.0
457,457,-0.4059980515610396,-0.4,1.0,341.0,882.0,1.0,467.0,1,1.0,0.0
458,458,0.2686498042970572,0.3,1.0,300.0,956.0,1.0,564.0,1,0.0,1.0
459,459,0.43071495492040224,0.4,0.0,398.0,529.0,0.0,43.0,1,1.0,1.0
460,460,-0.5176451048671087,-0.5,1.0,456.0,764.0,1.0,80.0,1,1.0,0.0
461,461,0.08809021663034522,0.1,0.0,453.0,914.0,0.0,803.0,1,1.0,1.0
462,462,-0.7103781124034917,-0.7,1.0,493.0,644.0,1.0,343.0,1,1.0,0.0
463,463,-0.5578196018776874,-0.6,0.0,342.0,675.0,0.0,83.0,1,0.0,0.0
464,464,0.2639377117831275,0.3,1.0,271.0,652.0,1.0,507.0,1,0.0,1.0
465,465,-0.14152842267172172,-0.1,0.0,325.0,510.0,0.0,995.0,1,0.0,0.0
466,466,0.0904648783823162,0.1,1.0,306.0,581.0,1.0,1723.0,1,0.0,1.0
467,467,-0.37877171157352085,-0.4,1.0,419.0,821.0,1.0,320.0,1,1.0,0.0
468,468,-0.5146714016935281,-0.5,0.0,363.0,944.0,0.0,113.0,1,0.0,0.0
469,469,0.8001376952746265,0.8,0.0,270.0,517.0,0.0,103.0,1,1.0,1.0
470,470,-0.8243161321423041,-0.8,0.0,294.0,587.0,0.0,269.0,1,0.0,0.0
471,471,0.7445692245617831,0.7,0.0,481.0,870.0,0.0,89.0,1,1.0,1.0
472,472,0.18544960185307324,0.2,0.0,298.0,740.0,0.0,622.0,1,1.0,1.0
473,473,0.3229202889127266,0.3,0.0,351.0,665.0,0.0,284.0,1,1.0,1.0
474,474,0.1881894417069393,0.2,1.0,446.0,896.0,1.0,548.0,1,0.0,1.0
475,475,0.47346528269603405,0.5,1.0,300.0,626.0,1.0,164.0,1,0.0,1.0
476,476,-0.663111935754227,-0.7,0.0,280.0,933.0,0.0,87.0,1,0.0,0.0
477,477,-0.7762960911549229,-0.8,1.0,459.0,793.0,1.0,298.0,1,1.0,0.0
478,478,0.020102612103876538,0.0,0.0,482.0,799.0,0.0,2839.0,1,1.0,1.0
479,479,-0.568268182926681,-0.6,0.0,322.0,671.0,0.0,187.0,1,0.0,0.0
480,480,-0.6763574221828315,-0.7,1.0,441.0,973.0,1.0,236.0,1,1.0,0.0
481,481,0.06468580506252075,0.1,0.0,469.0,623.0,0.0,288.0,1,1.0,1.0
482,482,0.7007804363052356,0.7,1.0,498.0,512.0,1.0,130.0,1,0.0,1.0
483,483,0.5955179276628267,0.6,0.0,463.0,671.0,0.0,276.0,1,1.0,1.0
484,484,0.10406953209584902,0.1,1.0,303.0,986.0,1.0,1151.0,1,0.0,1.0
485,485,-0.6400097373171797,-0.6,1.0,367.0,675.0,1.0,298.0,1,1.0,0.0
486,486,0.08503972726964348,0.1,0.0,416.0,890.0,0.0,504.0,1,1.0,1.0
487,487,0.6644431047908225,0.7,1.0,251.0,912.0,1.0,77.0,1,0.0,1.0
488,488,0.6310714265400269,0.6,1.0,473.0,915.0,1.0,202.0,1,0.0,1.0
489,489,0.024256085808286088,0.0,1.0,322.0,923.0,0.0,3755.0,0,0.0,0.0
490,490,0.08972761948960806,0.1,1.0,303.0,937.0,1.0,3760.0,1,0.0,1.0
491,491,-0.7465225132431008,-0.7,1.0,282.0,629.0,1.0,449.0,1,1.0,0.0
492,492,-0.37119397764281836,-0.4,0.0,492.0,625.0,0.0,583.0,1,0.0,0.0
493,493,0.11756917307249115,0.1,1.0,339.0,598.0,1.0,1133.0,1,0.0,1.0
494,494,-0.5856248646399227,-0.6,1.0,358.0,873.0,1.0,249.0,1,1.0,0.0
495,495,-0.6902643076456396,-0.7,0.0,315.0,945.0,0.0,110.0,1,0.0,0.0
496,496,-0.7445058481675785,-0.7,1.0,374.0,742.0,1.0,324.0,1,1.0,0.0
497,497,0.055417153696888155,0.1,1.0,403.0,515.0,1.0,4082.0,1,0.0,1.0
498,498,0.83080544379659,0.8,0.0,373.0,630.0,0.0,57.0,1,1.0,1.0
499,499,-0.7392615410638279,-0.7,0.0,360.0,512.0,0.0,218.0,1,0.0,0.0
500,500,0.8211909510443066,0.8,0.0,341.0,610.0,0.0,69.0,1,1.0,1.0
501,501,-0.13888778096985843,-0.1,0.0,403.0,539.0,0.0,958.0,1,0.0,0.0
502,502,0.2759919582296241,0.3,1.0,444.0,719.0,1.0,607.0,1,0.0,1.0
503,503,-0.4805075191656561,-0.5,0.0,447.0,677.0,0.0,386.0,1,0.0,0.0
504,504,-0.2607258727487497,-0.3,1.0,485.0,878.0,1.0,-83.0,1,1.0,0.0
505,505,-0.5754294569207696,-0.6,0.0,428.0,553.0,0.0,219.0,1,0.0,0.0
506,506,-0.5353522884257291,-0.5,0.0,374.0,839.0,0.0,177.0,1,0.0,0.0
507,507,-0.6657513006562711,-0.7,0.0,437.0,549.0,0.0,274.0,1,0.0,0.0
508,508,-0.7453337271996179,-0.7,1.0,339.0,550.0,1.0,201.0,1,1.0,0.0
509,509,-0.4253246831414326,-0.4,0.0,250.0,688.0,0.0,172.0,1,0.0,0.0
510,510,-0.6428248373095962,-0.6,0.0,382.0,608.0,0.0,80.0,1,0.0,0.0
511,511,-0.28432713811576305,-0.3,0.0,387.0,769.0,0.0,104.0,1,0.0,0.0
512,512,-0.43482528118118846,-0.4,1.0,427.0,674.0,1.0,269.0,1,1.0,0.0
513,513,0.09207285575902091,0.1,0.0,499.0,887.0,0.0,984.0,1,1.0,1.0
514,514,0.770513948340347,0.8,1.0,282.0,570.0,1.0,98.0,1,0.0,1.0
515,515,-0.8183802607125812,-0.8,0.0,324.0,548.0,0.0,48.0,1,0.0,0.0
516,516,-0.401304577329175,-0.4,1.0,341.0,971.0,1.0,708.0,1,1.0,0.0
517,517,-0.5275943073369056,-0.5,1.0,375.0,633.0,1.0,-258.0,1,1.0,0.0
518,518,0.09452714793170602,0.1,1.0,256.0,605.0,1.0,2509.0,1,0.0,1.0
519,519,0.22541780697408942,0.2,1.0,492.0,742.0,1.0,366.0,1,0.0,1.0
520,520,0.0690862415991359,0.1,1.0,285.0,603.0,1.0,4012.0,1,0.0,1.0
521,521,0.2944854245883731,0.3,1.0,367.0,577.0,1.0,336.0,1,0.0,1.0
522,522,-0.7053254238176296,-0.7,1.0,445.0,776.0,1.0,369.0,1,1.0,0.0
523,523,-0.5518201389529385,-0.6,0.0,272.0,648.0,0.0,230.0,1,0.0,0.0
524,524,0.36477140346225434,0.4,1.0,485.0,631.0,1.0,524.0,1,0.0,1.0
525,525,-0.11379198645168997,-0.1,0.0,471.0,770.0,0.0,879.0,1,0.0,0.0
526,526,-0.5386672057295656,-0.5,0.0,323.0,711.0,0.0,136.0,1,0.0,0.0
527,527,-0.03532030760094951,-0.0,0.0,260.0,852.0,0.0,898.0,1,0.0,0.0
528,528,0.5614287649492454,0.6,0.0,424.0,509.0,0.0,-133.0,1,1.0,1.0
529,529,-0.3745299483755411,-0.4,1.0,281.0,710.0,1.0,549.0,1,1.0,0.0
530,530,0.2887482153039663,0.3,0.0,379.0,996.0,0.0,-215.0,1,1.0,1.0
531,531,0.555072818730972,0.6,0.0,357.0,777.0,0.0,136.0,1,1.0,1.0
532,532,-0.5387729096445297,-0.5,1.0,403.0,647.0,1.0,300.0,1,1.0,0.0
533,533,-0.29645562569419515,-0.3,0.0,367.0,685.0,0.0,758.0,1,0.0,0.0
534,534,-0.20070414759163524,-0.2,0.0,455.0,737.0,0.0,308.0,1,0.0,0.0
535,535,-0.17728310091664423,-0.2,0.0,426.0,692.0,0.0,392.0,1,0.0,0.0
536,536,0.22152234157528483,0.2,1.0,402.0,912.0,1.0,516.0,1,0.0,1.0
537,537,-0.4073528272667621,-0.4,0.0,351.0,775.0,0.0,234.0,1,0.0,0.0
538,538,-0.49546388342856557,-0.5,0.0,430.0,988.0,0.0,292.0,1,0.0,0.0
539,539,0.276824274669525,0.3,1.0,432.0,575.0,1.0,333.0,1,0.0,1.0
540,540,0.38033910082675526,0.4,1.0,270.0,744.0,1.0,196.0,1,0.0,1.0
541,541,-0.7706686673587355,-0.8,0.0,351.0,667.0,0.0,112.0,1,0.0,0.0
542,542,0.8107157097973806,0.8,0.0,404.0,856.0,1.0,-750.0,0,1.0,0.0
543,543,0.19427010454099392,0.2,0.0,317.0,954.0,0.0,299.0,1,1.0,1.0
544,544,-0.3053863785247998,-0.3,1.0,293.0,799.0,1.0,528.0,1,1.0,0.0
545,545,-0.23621484940055437,-0.2,1.0,350.0,854.0,1.0,466.0,1,1.0,0.0
546,546,-0.4226320483042544,-0.4,1.0,323.0,801.0,1.0,406.0,1,1.0,0.0
547,547,-0.16442984246742354,-0.2,1.0,316.0,977.0,1.0,647.0,1,1.0,0.0
548,548,-0.40178694767169004,-0.4,0.0,328.0,582.0,0.0,580.0,1,0.0,0.0
549,549,-0.8035526877407974,-0.8,0.0,308.0,915.0,0.0,197.0,1,0.0,0.0
550,550,-0.7790901472692575,-0.8,1.0,363.0,678.0,1.0,99.0,1,1.0,0.0
551,551,0.25357105485214915,0.3,0.0,372.0,650.0,0.0,388.0,1,1.0,1.0
552,552,-0.2571100514497692,-0.3,1.0,322.0,648.0,1.0,130.0,1,1.0,0.0
553,553,-0.1020201420846335,-0.1,0.0,256.0,943.0,0.0,191.0,1,0.0,0.0
554,554,0.6989556595949852,0.7,0.0,395.0,948.0,0.0,117.0,1,1.0,1.0
555,555,0.28652643189280746,0.3,1.0,485.0,713.0,1.0,172.0,1,0.0,1.0
556,556,0.35997981735769236,0.4,1.0,388.0,859.0,1.0,213.0,1,0.0,1.0
557,557,-0.3329095256526311,-0.3,0.0,476.0,933.0,0.0,471.0,1,0.0,0.0
558,558,-0.1386703263960959,-0.1,1.0,437.0,721.0,1.0,822.0,1,1.0,0.0
559,559,-0.4311206738098759,-0.4,0.0,458.0,897.0,0.0,305.0,1,0.0,0.0
560,560,-0.3837232358461079,-0.4,0.0,486.0,555.0,0.0,149.0,1,0.0,0.0
561,561,0.24135504033155974,0.2,0.0,468.0,704.0,0.0,398.0,1,1.0,1.0
562,562,-0.24831161006929414,-0.2,0.0,279.0,533.0,0.0,748.0,1,0.0,0.0
563,563,0.09241602014656258,0.1,0.0,291.0,611.0,0.0,1048.0,1,1.0,1.0
564,564,0.2550759511298589,0.3,1.0,309.0,797.0,1.0,354.0,1,0.0,1.0
565,565,0.41361319988319967,0.4,1.0,309.0,660.0,1.0,91.0,1,0.0,1.0
566,566,0.013967899413210638,0.0,0.0,427.0,775.0,0.0,3678.0,1,1.0,1.0
567,567,-0.40320752641855157,-0.4,1.0,332.0,867.0,1.0,441.0,1,1.0,0.0
568,568,0.6979583431941615,0.7,1.0,419.0,754.0,1.0,87.0,1,0.0,1.0
569,569,-0.4840657871542062,-0.5,1.0,495.0,908.0,1.0,137.0,1,1.0,0.0
570,570,0.5880188654929493,0.6,1.0,445.0,785.0,1.0,210.0,1,0.0,1.0
571,571,0.8727390865698151,0.9,1.0,270.0,637.0,1.0,53.0,1,0.0,1.0
572,572,-0.3428340320248785,-0.3,0.0,399.0,585.0,0.0,176.0,1,0.0,0.0
573,573,-0.3394075904257198,-0.3,0.0,425.0,548.0,0.0,837.0,1,0.0,0.0
574,574,0.1990157318072442,0.2,1.0,312.0,609.0,1.0,909.0,1,0.0,1.0
575,575,0.30446084250990013,0.3,1.0,476.0,694.0,1.0,300.0,1,0.0,1.0
576,576,-0.6794190883131174,-0.7,1.0,295.0,812.0,1.0,123.0,1,1.0,0.0
577,577,-0.04042788494661087,-0.0,1.0,373.0,895.0,1.0,2142.0,1,1.0,0.0
578,578,0.3959006946129192,0.4,1.0,254.0,791.0,1.0,305.0,1,0.0,1.0
579,579,0.46681877955617923,0.5,0.0,271.0,724.0,0.0,255.0,1,1.0,1.0
580,580,-0.634047708227194,-0.6,0.0,264.0,707.0,0.0,169.0,1,0.0,0.0
581,581,-0.7804598738555708,-0.8,1.0,423.0,721.0,1.0,216.0,1,1.0,0.0
582,582,0.05691745556504424,0.1,1.0,387.0,806.0,0.0,77.0,0,0.0,0.0
583,583,0.8777626269690276,0.9,0.0,477.0,812.0,0.0,71.0,1,1.0,1.0
584,584,0.6273517012950302,0.6,1.0,341.0,987.0,1.0,132.0,1,0.0,1.0
585,585,0.659187389516095,0.7,1.0,354.0,750.0,1.0,26.0,1,0.0,1.0
586,586,-0.7834715984665046,-0.8,0.0,252.0,635.0,0.0,173.0,1,0.0,0.0
587,587,-0.6315106260263341,-0.6,0.0,271.0,591.0,0.0,298.0,1,0.0,0.0
588,588,0.3131004202433031,0.3,1.0,318.0,979.0,1.0,233.0,1,0.0,1.0
589,589,-0.645445851245359,-0.6,0.0,493.0,750.0,0.0,207.0,1,0.0,0.0
590,590,0.018841552522630534,0.0,0.0,440.0,635.0,1.0,3925.0,0,1.0,0.0
591,591,0.2640394834435541,0.3,1.0,337.0,587.0,1.0,776.0,1,0.0,1.0
592,592,-0.6164065280165257,-0.6,0.0,253.0,592.0,0.0,285.0,1,0.0,0.0
593,593,-0.7100197784523512,-0.7,0.0,325.0,844.0,0.0,231.0,1,0.0,0.0
594,594,0.10008091129968111,0.1,0.0,479.0,994.0,0.0,987.0,1,1.0,1.0
595,595,-0.4290124462464416,-0.4,0.0,485.0,507.0,0.0,288.0,1,0.0,0.0
596,596,0.5124750666987495,0.5,0.0,384.0,754.0,1.0,-418.0,0,1.0,0.0
597,597,0.36527114960439067,0.4,1.0,338.0,806.0,1.0,436.0,1,0.0,1.0
598,598,0.8800111264523868,0.9,0.0,380.0,761.0,0.0,139.0,1,1.0,1.0
599,599,-0.48746533584755963,-0.5,0.0,442.0,917.0,0.0,441.0,1,0.0,0.0
600,600,0.6675299219685634,0.7,1.0,493.0,996.0,1.0,61.0,1,0.0,1.0
601,601,0.2415304185208954,0.2,1.0,288.0,765.0,1.0,87.0,1,0.0,1.0
602,602,-0.620718140142166,-0.6,1.0,473.0,578.0,1.0,119.0,1,1.0,0.0
603,603,0.06752934050822479,0.1,1.0,287.0,997.0,0.0,3716.0,0,0.0,0.0
604,604,-0.1606526882746756,-0.2,1.0,347.0,845.0,1.0,628.0,1,1.0,0.0
605,605,0.6160942909533237,0.6,1.0,263.0,912.0,1.0,185.0,1,0.0,1.0
606,606,0.11511807916162164,0.1,1.0,409.0,776.0,1.0,605.0,1,0.0,1.0
607,607,-0.8838128782282226,-0.9,0.0,320.0,930.0,0.0,170.0,1,0.0,0.0
608,608,-0.39310251864105406,-0.4,1.0,314.0,968.0,1.0,158.0,1,1.0,0.0
609,609,-0.5688593367890385,-0.6,0.0,433.0,773.0,0.0,214.0,1,0.0,0.0
610,610,-0.7004626308005315,-0.7,0.0,285.0,588.0,0.0,177.0,1,0.0,0.0
611,611,-0.3473028296955305,-0.3,1.0,332.0,690.0,1.0,728.0,1,1.0,0.0
612,612,-0.49875642953321325,-0.5,1.0,431.0,731.0,1.0,408.0,1,1.0,0.0
613,613,-0.8706242114725896,-0.9,0.0,417.0,964.0,0.0,99.0,1,0.0,0.0
614,614,0.43894456767571655,0.4,0.0,421.0,946.0,0.0,273.0,1,1.0,1.0
615,615,-0.7604168276722107,-0.8,0.0,406.0,924.0,0.0,290.0,1,0.0,0.0
616,616,0.7394653795992973,0.7,0.0,288.0,881.0,0.0,101.0,1,1.0,1.0
617,617,0.25080981275601666,0.3,1.0,411.0,850.0,1.0,349.0,1,0.0,1.0
618,618,0.3193356794555541,0.3,0.0,347.0,944.0,0.0,-121.0,1,1.0,1.0
619,619,0.12078420729168016,0.1,0.0,373.0,931.0,0.0,816.0,1,1.0,1.0
620,620,0.2883149797802066,0.3,0.0,496.0,942.0,0.0,132.0,1,1.0,1.0
621,621,0.5814923759473462,0.6,1.0,343.0,903.0,1.0,134.0,1,0.0,1.0
622,622,-0.24545270798428354,-0.2,0.0,323.0,640.0,0.0,177.0,1,0.0,0.0
623,623,0.3029123275415858,0.3,1.0,481.0,514.0,1.0,105.0,1,0.0,1.0
624,624,-0.13141696101369005,-0.1,1.0,284.0,950.0,1.0,3656.0,1,1.0,0.0
625,625,0.8857139758486864,0.9,1.0,464.0,860.0,1.0,136.0,1,0.0,1.0
626,626,-0.6903294183486658,-0.7,0.0,338.0,953.0,0.0,109.0,1,0.0,0.0
627,627,0.5397217005430822,0.5,0.0,451.0,640.0,0.0,89.0,1,1.0,1.0
628,628,0.6479257918702598,0.6,0.0,496.0,836.0,0.0,78.0,1,1.0,1.0
629,629,-0.28914084324027456,-0.3,1.0,447.0,807.0,1.0,376.0,1,1.0,0.0
630,630,-0.5521704718406698,-0.6,1.0,408.0,633.0,1.0,79.0,1,1.0,0.0
631,631,-0.4784203660783412,-0.5,1.0,343.0,784.0,1.0,373.0,1,1.0,0.0
632,632,0.7258802561340766,0.7,1.0,341.0,529.0,1.0,250.0,1,0.0,1.0
633,633,-0.6713269494979696,-0.7,0.0,492.0,595.0,0.0,243.0,1,0.0,0.0
634,634,-0.5879754258635701,-0.6,0.0,442.0,642.0,0.0,306.0,1,0.0,0.0
635,635,0.40377045136799017,0.4,1.0,330.0,911.0,1.0,319.0,1,0.0,1.0
636,636,-0.16725251954277798,-0.2,0.0,318.0,904.0,0.0,108.0,1,0.0,0.0
637,637,0.15126612374987902,0.2,0.0,471.0,766.0,0.0,223.0,1,1.0,1.0
638,638,0.35349509399453216,0.4,1.0,359.0,756.0,1.0,265.0,1,0.0,1.0
639,639,0.46543767144978043,0.5,1.0,416.0,519.0,1.0,35.0,1,0.0,1.0
640,640,0.41324473356227653,0.4,0.0,350.0,722.0,0.0,178.0,1,1.0,1.0
641,641,-0.740683809888016,-0.7,1.0,252.0,569.0,1.0,209.0,1,1.0,0.0
642,642,-0.6323204429522342,-0.6,0.0,357.0,936.0,0.0,107.0,1,0.0,0.0
643,643,-0.36276519124719375,-0.4,1.0,446.0,927.0,1.0,347.0,1,1.0,0.0
644,644,0.5679770459704222,0.6,1.0,460.0,905.0,1.0,195.0,1,0.0,1.0
645,645,-0.03657484812480294,-0.0,0.0,425.0,769.0,0.0,2436.0,1,0.0,0.0
646,646,-0.8660737176768097,-0.9,0.0,390.0,525.0,0.0,115.0,1,0.0,0.0
647,647,0.22831766151364385,0.2,0.0,484.0,963.0,0.0,-477.0,1,1.0,1.0
648,648,0.7524300798966185,0.8,1.0,485.0,895.0,1.0,120.0,1,0.0,1.0
649,649,-0.11814818348532252,-0.1,1.0,415.0,681.0,1.0,1034.0,1,1.0,0.0
650,650,0.7139893745763882,0.7,1.0,354.0,840.0,1.0,196.0,1,0.0,1.0
651,651,-0.04553462064311542,-0.0,0.0,316.0,739.0,0.0,1865.0,1,0.0,0.0
652,652,-0.7797658548465113,-0.8,0.0,291.0,608.0,0.0,141.0,1,0.0,0.0
653,653,-0.10290782914026131,-0.1,1.0,330.0,731.0,1.0,729.0,1,1.0,0.0
654,654,0.7824157963886792,0.8,1.0,389.0,508.0,1.0,113.0,1,0.0,1.0
655,655,0.7797120424095575,0.8,1.0,335.0,697.0,1.0,78.0,1,0.0,1.0
656,656,0.8214710213027444,0.8,1.0,252.0,536.0,1.0,102.0,1,0.0,1.0
657,657,-0.5607917111758141,-0.6,0.0,477.0,955.0,0.0,-712.0,1,0.0,0.0
658,658,-0.10137351410990791,-0.1,1.0,317.0,793.0,1.0,800.0,1,1.0,0.0
659,659,0.5247388627129578,0.5,1.0,319.0,840.0,1.0,341.0,1,0.0,1.0
660,660,0.25399541759818234,0.3,1.0,418.0,969.0,1.0,413.0,1,0.0,1.0
661,661,0.09006793736747654,0.1,1.0,458.0,953.0,1.0,2669.0,1,0.0,1.0
662,662,0.8129312005539789,0.8,1.0,264.0,562.0,1.0,184.0,1,0.0,1.0
663,663,0.7614148314508554,0.8,1.0,411.0,933.0,1.0,186.0,1,0.0,1.0
664,664,0.8359402288600503,0.8,0.0,263.0,784.0,0.0,83.0,1,1.0,1.0
665,665,-0.3555373320112204,-0.4,0.0,250.0,768.0,0.0,132.0,1,0.0,0.0
666,666,0.5862135555941065,0.6,1.0,332.0,828.0,1.0,200.0,1,0.0,1.0
667,667,-0.8882387792211784,-0.9,0.0,255.0,652.0,0.0,133.0,1,0.0,0.0
668,668,-0.8348905350134073,-0.8,1.0,375.0,867.0,1.0,358.0,1,1.0,0.0
669,669,-0.01766398597552521,-0.0,1.0,366.0,695.0,1.0,3939.0,1,1.0,0.0
670,670,-0.3033113892306536,-0.3,1.0,366.0,876.0,1.0,468.0,1,1.0,0.0
671,671,0.7487942153649515,0.7,1.0,450.0,587.0,1.0,53.0,1,0.0,1.0
672,672,-0.5575767578423526,-0.6,1.0,303.0,982.0,1.0,175.0,1,1.0,0.0
673,673,0.1399408097819218,0.1,1.0,304.0,725.0,1.0,561.0,1,0.0,1.0
674,674,0.31982643916998754,0.3,1.0,379.0,959.0,1.0,462.0,1,0.0,1.0
675,675,0.5645591112909253,0.6,1.0,323.0,685.0,1.0,232.0,1,0.0,1.0
676,676,0.5141444355854484,0.5,0.0,360.0,673.0,0.0,147.0,1,1.0,1.0
677,677,0.10073182782588341,0.1,1.0,434.0,663.0,1.0,663.0,1,0.0,1.0
678,678,0.7406224918360108,0.7,0.0,441.0,647.0,0.0,172.0,1,1.0,1.0
679,679,-0.6504145588918049,-0.7,0.0,283.0,936.0,0.0,181.0,1,0.0,0.0
680,680,-0.14909314521496497,-0.1,1.0,485.0,729.0,1.0,386.0,1,1.0,0.0
681,681,-0.2589441156787111,-0.3,0.0,432.0,769.0,0.0,889.0,1,0.0,0.0
682,682,0.2955535485588868,0.3,1.0,284.0,941.0,0.0,-535.0,0,0.0,0.0
683,683,0.11970244161577559,0.1,1.0,353.0,897.0,1.0,440.0,1,0.0,1.0
684,684,0.12254861607294865,0.1,0.0,251.0,750.0,0.0,469.0,1,1.0,1.0
685,685,-0.022157969692280788,-0.0,1.0,423.0,691.0,1.0,3886.0,1,1.0,0.0
686,686,0.2659033343391547,0.3,1.0,292.0,936.0,1.0,232.0,1,0.0,1.0
687,687,-0.8283890975058988,-0.8,1.0,358.0,979.0,1.0,143.0,1,1.0,0.0
688,688,0.6756845077768624,0.7,0.0,444.0,875.0,0.0,121.0,1,1.0,1.0
689,689,-0.316715796572799,-0.3,1.0,339.0,824.0,1.0,467.0,1,1.0,0.0
690,690,-0.08161659882114858,-0.1,0.0,273.0,781.0,0.0,646.0,1,0.0,0.0
691,691,-0.014190073534202319,-0.0,0.0,304.0,968.0,0.0,628.0,1,0.0,0.0
692,692,-0.5087406307850377,-0.5,1.0,322.0,784.0,1.0,364.0,1,1.0,0.0
693,693,0.4384340161498471,0.4,0.0,351.0,763.0,0.0,136.0,1,1.0,1.0
694,694,0.8138390468830355,0.8,0.0,301.0,834.0,0.0,135.0,1,1.0,1.0
695,695,0.5897384946481513,0.6,0.0,428.0,613.0,0.0,119.0,1,1.0,1.0
696,696,-0.7631299951049161,-0.8,1.0,309.0,534.0,1.0,117.0,1,1.0,0.0
697,697,0.6211176316274617,0.6,0.0,301.0,531.0,0.0,88.0,1,1.0,1.0
698,698,-0.18973783964964186,-0.2,0.0,389.0,914.0,0.0,877.0,1,0.0,0.0
699,699,-0.3646789475861464,-0.4,0.0,324.0,780.0,0.0,216.0,1,0.0,0.0
700,700,0.39428858844592496,0.4,0.0,353.0,554.0,0.0,183.0,1,1.0,1.0
701,701,0.8178050448830402,0.8,0.0,416.0,645.0,0.0,119.0,1,1.0,1.0
702,702,0.6476029216934241,0.6,1.0,444.0,641.0,1.0,275.0,1,0.0,1.0
703,703,-0.22586736953751552,-0.2,1.0,274.0,741.0,1.0,1185.0,1,1.0,0.0
704,704,-0.75301636032968,-0.8,0.0,326.0,879.0,0.0,295.0,1,0.0,0.0
705,705,0.34652512481231834,0.3,1.0,452.0,663.0,1.0,545.0,1,0.0,1.0
706,706,0.24611264822911216,0.2,1.0,274.0,562.0,1.0,204.0,1,0.0,1.0
707,707,0.054788246418878694,0.1,1.0,367.0,625.0,1.0,4008.0,1,0.0,1.0
708,708,0.13588250268764146,0.1,1.0,445.0,922.0,1.0,713.0,1,0.0,1.0
709,709,-0.5606974967188834,-0.6,0.0,435.0,917.0,0.0,188.0,1,0.0,0.0
710,710,0.34758666563552876,0.3,1.0,402.0,951.0,1.0,357.0,1,0.0,1.0
711,711,-0.8041204830753715,-0.8,0.0,497.0,701.0,0.0,222.0,1,0.0,0.0
712,712,0.7297918461873477,0.7,1.0,446.0,834.0,1.0,40.0,1,0.0,1.0
713,713,-0.42701669927142527,-0.4,0.0,427.0,644.0,0.0,189.0,1,0.0,0.0
714,714,0.661406531068056,0.7,0.0,365.0,558.0,0.0,47.0,1,1.0,1.0
715,715,0.745680064568042,0.7,0.0,320.0,801.0,0.0,139.0,1,1.0,1.0
716,716,0.5550115248757898,0.6,0.0,493.0,993.0,0.0,134.0,1,1.0,1.0
717,717,-0.5535158582864796,-0.6,0.0,372.0,803.0,0.0,335.0,1,0.0,0.0
718,718,-0.6011902979880768,-0.6,1.0,478.0,693.0,1.0,99.0,1,1.0,0.0
719,719,0.06101833065148787,0.1,0.0,381.0,800.0,0.0,2369.0,1,1.0,1.0
720,720,-0.6891291624162994,-0.7,1.0,315.0,550.0,1.0,175.0,1,1.0,0.0
721,721,-0.2516864393757222,-0.3,0.0,267.0,649.0,0.0,484.0,1,0.0,0.0
722,722,0.8680146818191735,0.9,0.0,488.0,760.0,0.0,152.0,1,1.0,1.0
723,723,-0.1943309522204848,-0.2,1.0,340.0,603.0,1.0,-123.0,1,1.0,0.0
724,724,0.20034434580690486,0.2,0.0,381.0,887.0,0.0,342.0,1,1.0,1.0
725,725,0.5346487569016759,0.5,1.0,390.0,778.0,1.0,142.0,1,0.0,1.0
726,726,0.4206141593795506,0.4,0.0,476.0,651.0,0.0,193.0,1,1.0,1.0
727,727,0.8353721135972755,0.8,1.0,497.0,797.0,1.0,96.0,1,0.0,1.0
728,728,0.28863805924682306,0.3,0.0,465.0,586.0,0.0,469.0,1,1.0,1.0
729,729,-0.4067270075027721,-0.4,0.0,257.0,976.0,0.0,357.0,1,0.0,0.0
730,730,0.09561148403127373,0.1,1.0,290.0,683.0,1.0,1707.0,1,0.0,1.0
731,731,-0.6075754069165507,-0.6,1.0,266.0,607.0,1.0,157.0,1,1.0,0.0
732,732,0.6969153223057357,0.7,0.0,459.0,685.0,0.0,106.0,1,1.0,1.0
733,733,0.5856828876756887,0.6,0.0,407.0,588.0,0.0,115.0,1,1.0,1.0
734,734,-0.36096337530420197,-0.4,0.0,370.0,721.0,0.0,499.0,1,0.0,0.0
735,735,-0.516871650274985,-0.5,0.0,407.0,957.0,0.0,346.0,1,0.0,0.0
736,736,0.5329343934567284,0.5,1.0,497.0,821.0,1.0,162.0,1,0.0,1.0
737,737,-0.4889611065391144,-0.5,0.0,396.0,540.0,0.0,414.0,1,0.0,0.0
738,738,-0.2343921169231128,-0.2,0.0,428.0,811.0,0.0,321.0,1,0.0,0.0
739,739,0.5795135078553543,0.6,1.0,348.0,932.0,1.0,220.0,1,0.0,1.0
740,740,0.8282075039485758,0.8,1.0,334.0,948.0,1.0,128.0,1,0.0,1.0
741,741,0.5303123535528936,0.5,0.0,331.0,526.0,0.0,73.0,1,1.0,1.0
742,742,-0.43397241110107093,-0.4,1.0,358.0,959.0,1.0,-357.0,1,1.0,0.0
743,743,-0.7178511312534789,-0.7,0.0,259.0,682.0,0.0,169.0,1,0.0,0.0
744,744,0.22448211963900866,0.2,1.0,438.0,608.0,1.0,744.0,1,0.0,1.0
745,745,0.4205243955026795,0.4,0.0,443.0,761.0,0.0,186.0,1,1.0,1.0
746,746,0.7008350775218432,0.7,0.0,400.0,584.0,0.0,56.0,1,1.0,1.0
747,747,-0.8135646690528282,-0.8,1.0,254.0,650.0,1.0,306.0,1,1.0,0.0
748,748,0.15708036359418964,0.2,1.0,440.0,731.0,0.0,-191.0,0,0.0,0.0
749,749,-0.6904929063267087,-0.7,1.0,286.0,667.0,1.0,147.0,1,1.0,0.0
750,750,0.7653162969419437,0.8,1.0,464.0,787.0,1.0,29.0,1,0.0,1.0
751,751,0.6563824845501322,0.7,0.0,313.0,920.0,0.0,107.0,1,1.0,1.0
752,752,-0.5716376963378382,-0.6,0.0,396.0,709.0,0.0,135.0,1,0.0,0.0
753,753,0.19763612763643013,0.2,0.0,253.0,631.0,0.0,216.0,1,1.0,1.0
754,754,0.8065547855765781,0.8,1.0,463.0,570.0,1.0,107.0,1,0.0,1.0
755,755,0.057344420730167656,0.1,1.0,454.0,955.0,1.0,1261.0,1,0.0,1.0
756,756,-0.6029450358465261,-0.6,0.0,300.0,562.0,0.0,368.0,1,0.0,0.0
757,757,0.8165721048153146,0.8,1.0,466.0,507.0,1.0,137.0,1,0.0,1.0
758,758,-0.840673338786919,-0.8,0.0,344.0,957.0,0.0,139.0,1,0.0,0.0
759,759,0.22040608781765758,0.2,1.0,317.0,714.0,1.0,1079.0,1,0.0,1.0
760,760,0.7486724313400949,0.7,1.0,306.0,742.0,1.0,152.0,1,0.0,1.0
761,761,0.2849260235864918,0.3,0.0,342.0,868.0,0.0,370.0,1,1.0,1.0
762,762,-0.8396079227538075,-0.8,0.0,350.0,550.0,0.0,130.0,1,0.0,0.0
763,763,0.12442753963195641,0.1,1.0,309.0,821.0,1.0,530.0,1,0.0,1.0
764,764,-0.6039958733554682,-0.6,1.0,413.0,771.0,1.0,526.0,1,1.0,0.0
765,765,-0.026587199341930323,-0.0,1.0,481.0,834.0,0.0,345.0,0,1.0,1.0
766,766,-0.8507940951133238,-0.9,1.0,450.0,683.0,1.0,97.0,1,1.0,0.0
767,767,-0.09175890119371943,-0.1,0.0,383.0,813.0,0.0,1624.0,1,0.0,0.0
768,768,-0.7913862320220908,-0.8,0.0,428.0,546.0,0.0,246.0,1,0.0,0.0
769,769,0.35449605347671087,0.4,1.0,370.0,844.0,1.0,236.0,1,0.0,1.0
770,770,-0.36109575153703866,-0.4,0.0,440.0,721.0,0.0,299.0,1,0.0,0.0
771,771,0.12030202643088905,0.1,0.0,444.0,829.0,0.0,1037.0,1,1.0,1.0
772,772,0.643782453585008,0.6,1.0,439.0,552.0,1.0,249.0,1,0.0,1.0
773,773,0.6977562193066299,0.7,0.0,462.0,893.0,0.0,175.0,1,1.0,1.0
774,774,0.09737153366676943,0.1,0.0,392.0,897.0,0.0,511.0,1,1.0,1.0
775,775,-0.7308111986782548,-0.7,0.0,306.0,784.0,0.0,260.0,1,0.0,0.0
776,776,0.3819152009451344,0.4,0.0,389.0,823.0,0.0,248.0,1,1.0,1.0
777,777,0.43620683004290217,0.4,1.0,339.0,890.0,1.0,51.0,1,0.0,1.0
778,778,-0.03165839930126202,-0.0,0.0,258.0,732.0,0.0,490.0,1,0.0,0.0
779,779,0.09752417585516227,0.1,0.0,410.0,922.0,0.0,3588.0,1,1.0,1.0
780,780,0.7504678068567915,0.8,1.0,427.0,740.0,1.0,33.0,1,0.0,1.0
781,781,-0.5771044880281955,-0.6,1.0,472.0,819.0,1.0,179.0,1,1.0,0.0
782,782,0.2339127613341202,0.2,1.0,329.0,679.0,1.0,152.0,1,0.0,1.0
783,783,-0.3669158644506809,-0.4,1.0,346.0,744.0,1.0,940.0,1,1.0,0.0
784,784,-0.7172387445936652,-0.7,1.0,473.0,968.0,1.0,579.0,1,1.0,0.0
785,785,-0.5862475012075761,-0.6,1.0,391.0,842.0,1.0,227.0,1,1.0,0.0
786,786,0.4905023427415297,0.5,0.0,484.0,646.0,0.0,190.0,1,1.0,1.0
787,787,-0.058086031863817666,-0.1,1.0,320.0,638.0,1.0,492.0,1,1.0,0.0
788,788,-0.4239705154637574,-0.4,1.0,341.0,759.0,1.0,330.0,1,1.0,0.0
789,789,-0.6456104943032346,-0.6,0.0,425.0,591.0,1.0,-116.0,0,0.0,1.0
790,790,-0.658469665652863,-0.7,1.0,405.0,637.0,1.0,278.0,1,1.0,0.0
791,791,-0.38857520187938344,-0.4,1.0,292.0,898.0,1.0,860.0,1,1.0,0.0
792,792,0.5322900241012273,0.5,1.0,290.0,894.0,1.0,176.0,1,0.0,1.0
793,793,-0.21649425233972552,-0.2,1.0,292.0,844.0,1.0,254.0,1,1.0,0.0
794,794,0.5700074866474781,0.6,1.0,303.0,917.0,1.0,230.0,1,0.0,1.0
795,795,0.5660758647380518,0.6,1.0,418.0,542.0,1.0,150.0,1,0.0,1.0
796,796,0.27471666430502484,0.3,0.0,357.0,730.0,0.0,603.0,1,1.0,1.0
797,797,0.6091965732455044,0.6,0.0,320.0,529.0,0.0,121.0,1,1.0,1.0
798,798,-0.3190200719941645,-0.3,0.0,448.0,834.0,0.0,178.0,1,0.0,0.0
799,799,0.10077002831190074,0.1,0.0,283.0,652.0,0.0,185.0,1,1.0,1.0
800,800,-0.27087716963432473,-0.3,1.0,374.0,982.0,1.0,674.0,1,1.0,0.0
801,801,0.8089622973047194,0.8,1.0,493.0,566.0,1.0,131.0,1,0.0,1.0
802,802,-0.2975111780006746,-0.3,1.0,336.0,806.0,1.0,438.0,1,1.0,0.0
803,803,0.19855689104208885,0.2,0.0,366.0,574.0,0.0,870.0,1,1.0,1.0
804,804,0.3424110371120922,0.3,1.0,396.0,560.0,1.0,404.0,1,0.0,1.0
805,805,-0.23298769009624776,-0.2,0.0,459.0,727.0,0.0,514.0,1,0.0,0.0
806,806,-0.428161697544211,-0.4,0.0,409.0,926.0,0.0,365.0,1,0.0,0.0
807,807,-0.7661919085075805,-0.8,1.0,478.0,769.0,1.0,183.0,1,1.0,0.0
808,808,0.41445666373308543,0.4,0.0,320.0,656.0,0.0,214.0,1,1.0,1.0
809,809,0.7597419412020822,0.8,0.0,262.0,975.0,0.0,103.0,1,1.0,1.0
810,810,-0.5328382722689002,-0.5,0.0,419.0,721.0,0.0,110.0,1,0.0,0.0
811,811,0.5710530979735363,0.6,0.0,480.0,744.0,0.0,226.0,1,1.0,1.0
812,812,0.6895787400835914,0.7,1.0,382.0,536.0,1.0,102.0,1,0.0,1.0
813,813,-0.5105730708862293,-0.5,1.0,337.0,595.0,1.0,328.0,1,1.0,0.0
814,814,-0.8714734118727031,-0.9,1.0,316.0,939.0,1.0,165.0,1,1.0,0.0
815,815,0.05503584376509818,0.1,0.0,380.0,505.0,0.0,1625.0,1,1.0,1.0
816,816,-0.48896945002050257,-0.5,1.0,473.0,989.0,1.0,278.0,1,1.0,0.0
817,817,0.09222851335592408,0.1,1.0,267.0,594.0,1.0,489.0,1,0.0,1.0
818,818,-0.23291902436919976,-0.2,0.0,287.0,520.0,0.0,233.0,1,0.0,0.0
819,819,0.2245866015659842,0.2,0.0,434.0,908.0,0.0,218.0,1,1.0,1.0
820,820,0.22833379073882354,0.2,1.0,484.0,696.0,1.0,680.0,1,0.0,1.0
821,821,0.8286394138148364,0.8,0.0,433.0,652.0,0.0,75.0,1,1.0,1.0
822,822,0.010409968200734476,0.0,0.0,262.0,622.0,0.0,1756.0,1,1.0,1.0
823,823,-0.07955935943061954,-0.1,1.0,308.0,666.0,1.0,3426.0,1,1.0,0.0
824,824,-0.34658644662177696,-0.3,1.0,407.0,645.0,1.0,208.0,1,1.0,0.0
825,825,0.15515188782888434,0.2,1.0,462.0,585.0,1.0,1053.0,1,0.0,1.0
826,826,-0.1877766360055474,-0.2,0.0,461.0,904.0,0.0,-195.0,1,0.0,0.0
827,827,0.025694394742190374,0.0,0.0,264.0,819.0,1.0,-303.0,0,1.0,0.0
828,828,0.4222473031734849,0.4,1.0,386.0,812.0,1.0,262.0,1,0.0,1.0
829,829,0.5212073637296418,0.5,0.0,340.0,710.0,0.0,210.0,1,1.0,1.0
830,830,0.12969918674803116,0.1,1.0,426.0,564.0,1.0,790.0,1,0.0,1.0
831,831,-0.3682776911587564,-0.4,1.0,319.0,721.0,1.0,410.0,1,1.0,0.0
832,832,0.5821307946797157,0.6,1.0,359.0,605.0,1.0,136.0,1,0.0,1.0
833,833,-0.6928798398128567,-0.7,1.0,312.0,949.0,1.0,-241.0,1,1.0,0.0
834,834,-0.36377401777211504,-0.4,0.0,376.0,693.0,0.0,481.0,1,0.0,0.0
835,835,0.2891110965683342,0.3,1.0,261.0,584.0,1.0,515.0,1,0.0,1.0
836,836,-0.6435646677020099,-0.6,0.0,442.0,912.0,0.0,156.0,1,0.0,0.0
837,837,0.1359330769074264,0.1,0.0,493.0,642.0,0.0,855.0,1,1.0,1.0
838,838,0.5747352091531467,0.6,1.0,404.0,557.0,1.0,229.0,1,0.0,1.0
839,839,-0.035286581467414924,-0.0,0.0,271.0,899.0,0.0,3830.0,1,0.0,0.0
840,840,-0.48778464816602,-0.5,0.0,457.0,577.0,0.0,256.0,1,0.0,0.0
841,841,-0.8892773310167791,-0.9,1.0,461.0,683.0,1.0,196.0,1,1.0,0.0
842,842,0.3701258732494178,0.4,0.0,462.0,917.0,0.0,291.0,1,1.0,1.0
843,843,0.3439808127680025,0.3,1.0,390.0,546.0,1.0,314.0,1,0.0,1.0
844,844,0.8634499154298746,0.9,0.0,418.0,950.0,0.0,82.0,1,1.0,1.0
845,845,0.398310952932054,0.4,0.0,336.0,935.0,0.0,279.0,1,1.0,1.0
846,846,-0.8238355136286338,-0.8,0.0,360.0,719.0,0.0,241.0,1,0.0,0.0
847,847,0.836919714520091,0.8,0.0,279.0,739.0,0.0,102.0,1,1.0,1.0
848,848,-0.27655507137703306,-0.3,1.0,251.0,808.0,1.0,491.0,1,1.0,0.0
849,849,-0.34954468554614004,-0.3,1.0,411.0,770.0,1.0,-101.0,1,1.0,0.0
850,850,-0.6157056237238598,-0.6,0.0,458.0,559.0,0.0,343.0,1,0.0,0.0
851,851,-0.34556180433079686,-0.3,1.0,347.0,548.0,1.0,365.0,1,1.0,0.0
852,852,-0.1707776785624293,-0.2,1.0,487.0,888.0,1.0,335.0,1,1.0,0.0
853,853,-0.06481401913601692,-0.1,0.0,434.0,667.0,0.0,3899.0,1,0.0,0.0
854,854,-0.4438506669107969,-0.4,1.0,489.0,610.0,1.0,271.0,1,1.0,0.0
855,855,-0.13611146622040848,-0.1,1.0,367.0,978.0,1.0,745.0,1,1.0,0.0
856,856,-0.04236933983695601,-0.0,1.0,325.0,615.0,1.0,4060.0,1,1.0,0.0
857,857,0.6124399183023398,0.6,1.0,373.0,976.0,1.0,181.0,1,0.0,1.0
858,858,-0.1300029558436827,-0.1,1.0,275.0,999.0,1.0,2066.0,1,1.0,0.0
859,859,-0.10102955454675788,-0.1,0.0,297.0,829.0,0.0,454.0,1,0.0,0.0
860,860,0.41494688994523277,0.4,1.0,250.0,789.0,1.0,481.0,1,0.0,1.0
861,861,0.38347570506061046,0.4,1.0,259.0,883.0,1.0,438.0,1,0.0,1.0
862,862,-0.054840496737221356,-0.1,0.0,345.0,531.0,0.0,3824.0,1,0.0,0.0
863,863,-0.21137726960106173,-0.2,1.0,267.0,651.0,1.0,1292.0,1,1.0,0.0
864,864,-0.0048223105385440945,-0.0,1.0,318.0,935.0,1.0,3747.0,1,1.0,0.0
865,865,0.530723543225872,0.5,0.0,331.0,729.0,0.0,230.0,1,1.0,1.0
866,866,0.7533649593950181,0.8,1.0,371.0,926.0,1.0,133.0,1,0.0,1.0
867,867,-0.7988245729186986,-0.8,1.0,441.0,578.0,1.0,261.0,1,1.0,0.0
868,868,0.40365881296042183,0.4,1.0,429.0,772.0,1.0,309.0,1,0.0,1.0
869,869,0.7658789197260293,0.8,0.0,416.0,896.0,0.0,168.0,1,1.0,1.0
870,870,-0.1431282837093374,-0.1,1.0,382.0,817.0,1.0,2701.0,1,1.0,0.0
871,871,0.011728690145312193,0.0,0.0,421.0,513.0,1.0,1296.0,0,1.0,0.0
872,872,-0.7186288349606094,-0.7,0.0,415.0,906.0,0.0,-401.0,1,0.0,0.0
873,873,0.7109890107572004,0.7,0.0,371.0,969.0,0.0,80.0,1,1.0,1.0
874,874,-0.33661943253896687,-0.3,1.0,460.0,661.0,1.0,779.0,1,1.0,0.0
875,875,-0.7487139343892293,-0.7,1.0,255.0,973.0,1.0,292.0,1,1.0,0.0
876,876,0.7975894927405806,0.8,1.0,466.0,869.0,1.0,95.0,1,0.0,1.0
877,877,0.26900743601528354,0.3,1.0,314.0,986.0,1.0,840.0,1,0.0,1.0
878,878,0.203423696681171,0.2,1.0,420.0,988.0,1.0,222.0,1,0.0,1.0
879,879,0.8792224254344293,0.9,1.0,282.0,665.0,1.0,43.0,1,0.0,1.0
880,880,0.4756074549006343,0.5,1.0,257.0,992.0,1.0,211.0,1,0.0,1.0
881,881,-0.7013018112819309,-0.7,0.0,288.0,571.0,0.0,81.0,1,0.0,0.0
882,882,-0.2706192723477896,-0.3,0.0,415.0,725.0,0.0,490.0,1,0.0,0.0
883,883,0.38110329890003103,0.4,1.0,376.0,741.0,1.0,283.0,1,0.0,1.0
884,884,-0.45122289776748997,-0.5,0.0,434.0,659.0,0.0,157.0,1,0.0,0.0
885,885,0.3861376953264327,0.4,1.0,383.0,800.0,1.0,187.0,1,0.0,1.0
886,886,0.28865595200784255,0.3,0.0,475.0,583.0,0.0,632.0,1,1.0,1.0
887,887,-0.7348443269926211,-0.7,1.0,254.0,687.0,1.0,159.0,1,1.0,0.0
888,888,-0.033971012437195025,-0.0,0.0,336.0,954.0,0.0,3710.0,1,0.0,0.0
889,889,-0.1292356238256912,-0.1,0.0,290.0,628.0,0.0,632.0,1,0.0,0.0
890,890,0.2879210626161849,0.3,1.0,414.0,940.0,1.0,486.0,1,0.0,1.0
891,891,-0.438510290424347,-0.4,1.0,331.0,904.0,1.0,295.0,1,1.0,0.0
892,892,0.8638839448813153,0.9,0.0,461.0,776.0,0.0,113.0,1,1.0,1.0
893,893,0.6255638876425954,0.6,1.0,398.0,780.0,1.0,192.0,1,0.0,1.0
894,894,0.4666386330790958,0.5,0.0,379.0,956.0,0.0,85.0,1,1.0,1.0
895,895,-0.42387955673287897,-0.4,0.0,492.0,647.0,0.0,311.0,1,0.0,0.0
896,896,-0.09246888710108803,-0.1,0.0,443.0,517.0,0.0,1340.0,1,0.0,0.0
897,897,0.8723067985477876,0.9,0.0,485.0,566.0,0.0,79.0,1,1.0,1.0
898,898,0.7352933885223988,0.7,0.0,352.0,884.0,0.0,114.0,1,1.0,1.0
899,899,0.4300573350965561,0.4,0.0,311.0,658.0,0.0,211.0,1,1.0,1.0
900,900,-0.3075892386450324,-0.3,0.0,295.0,588.0,0.0,17.0,1,0.0,0.0
901,901,-0.4189903235266288,-0.4,0.0,499.0,961.0,0.0,250.0,1,0.0,0.0
902,902,-0.28640478245684753,-0.3,1.0,412.0,584.0,1.0,164.0,1,1.0,0.0
903,903,0.8508766099779771,0.9,1.0,409.0,985.0,1.0,26.0,1,0.0,1.0
904,904,-0.8313231167567247,-0.8,1.0,344.0,994.0,1.0,282.0,1,1.0,0.0
905,905,-0.39548623983138775,-0.4,0.0,316.0,602.0,0.0,462.0,1,0.0,0.0
906,906,0.007243934624528214,0.0,1.0,431.0,751.0,0.0,3818.0,0,0.0,0.0
907,907,0.29521225809831775,0.3,0.0,408.0,602.0,0.0,130.0,1,1.0,1.0
908,908,0.8417655666783633,0.8,0.0,279.0,908.0,0.0,23.0,1,1.0,1.0
909,909,0.6226463052562555,0.6,1.0,495.0,536.0,1.0,159.0,1,0.0,1.0
910,910,-0.5779203876886383,-0.6,0.0,352.0,903.0,0.0,245.0,1,0.0,0.0
911,911,-0.27700261104207946,-0.3,0.0,313.0,807.0,0.0,300.0,1,0.0,0.0
912,912,-0.7915272217405839,-0.8,0.0,401.0,883.0,0.0,216.0,1,0.0,0.0
913,913,-0.6655259354125976,-0.7,1.0,417.0,974.0,1.0,139.0,1,1.0,0.0
914,914,-0.6135501444583245,-0.6,0.0,324.0,808.0,0.0,188.0,1,0.0,0.0
915,915,0.5253773234727529,0.5,0.0,257.0,517.0,0.0,186.0,1,1.0,1.0
916,916,0.6208229199257259,0.6,1.0,386.0,966.0,0.0,-522.0,0,0.0,0.0
917,917,-0.03456109040810018,-0.0,0.0,331.0,615.0,0.0,834.0,1,0.0,0.0
918,918,0.1696300310983564,0.2,0.0,254.0,718.0,0.0,718.0,1,1.0,1.0
919,919,0.3320172197140875,0.3,1.0,306.0,890.0,1.0,264.0,1,0.0,1.0
920,920,0.5516263541757916,0.6,0.0,344.0,969.0,0.0,77.0,1,1.0,1.0
921,921,0.015482804674861295,0.0,1.0,417.0,615.0,1.0,3968.0,1,0.0,1.0
922,922,-0.36649522530422896,-0.4,1.0,403.0,706.0,1.0,151.0,1,1.0,0.0
923,923,0.38171008682215024,0.4,0.0,424.0,732.0,0.0,234.0,1,1.0,1.0
924,924,-0.23028706888361072,-0.2,0.0,354.0,844.0,0.0,1112.0,1,0.0,0.0
925,925,0.5642708628140657,0.6,1.0,479.0,592.0,1.0,109.0,1,0.0,1.0
926,926,0.22620425540396105,0.2,0.0,325.0,748.0,0.0,577.0,1,1.0,1.0
927,927,-0.534299150958079,-0.5,0.0,397.0,751.0,0.0,162.0,1,0.0,0.0
928,928,0.7578286378364268,0.8,1.0,370.0,927.0,1.0,183.0,1,0.0,1.0
929,929,-0.5979799913641046,-0.6,1.0,318.0,684.0,1.0,118.0,1,1.0,0.0
930,930,-0.34846318248409736,-0.3,0.0,495.0,848.0,0.0,277.0,1,0.0,0.0
931,931,-0.6420988694498573,-0.6,1.0,366.0,566.0,1.0,318.0,1,1.0,0.0
932,932,-0.7289396596345942,-0.7,0.0,332.0,946.0,0.0,282.0,1,0.0,0.0
933,933,0.0931408755125851,0.1,0.0,408.0,550.0,0.0,2032.0,1,1.0,1.0
934,934,0.17368334456193069,0.2,0.0,438.0,544.0,0.0,308.0,1,1.0,1.0
935,935,0.16191694490709174,0.2,0.0,341.0,729.0,0.0,120.0,1,1.0,1.0
936,936,0.5771811956873355,0.6,1.0,316.0,637.0,1.0,207.0,1,0.0,1.0
937,937,0.572726474575029,0.6,1.0,439.0,798.0,1.0,113.0,1,0.0,1.0
938,938,0.8076699957307368,0.8,1.0,434.0,505.0,1.0,71.0,1,0.0,1.0
939,939,0.34969679194523107,0.3,0.0,372.0,828.0,0.0,270.0,1,1.0,1.0
940,940,-0.2710724814208375,-0.3,1.0,310.0,809.0,1.0,571.0,1,1.0,0.0
941,941,0.2918791643393991,0.3,0.0,303.0,853.0,1.0,-356.0,0,1.0,0.0
942,942,0.8812566715456712,0.9,1.0,423.0,806.0,1.0,111.0,1,0.0,1.0
943,943,0.8565248566861537,0.9,1.0,269.0,640.0,1.0,131.0,1,0.0,1.0
944,944,-0.6654044418464226,-0.7,1.0,265.0,960.0,1.0,325.0,1,1.0,0.0
945,945,-0.029392792868585094,-0.0,0.0,302.0,783.0,0.0,1055.0,1,0.0,0.0
946,946,-0.8863195269048935,-0.9,1.0,444.0,655.0,1.0,111.0,1,1.0,0.0
947,947,0.844325980957349,0.8,0.0,352.0,731.0,0.0,77.0,1,1.0,1.0
948,948,-0.7720534524307809,-0.8,0.0,295.0,878.0,0.0,107.0,1,0.0,0.0
949,949,0.24662095705498255,0.2,1.0,490.0,896.0,1.0,664.0,1,0.0,1.0
950,950,-0.015601201986259361,-0.0,1.0,289.0,846.0,0.0,3865.0,0,1.0,1.0
951,951,0.3316288268774482,0.3,1.0,388.0,716.0,1.0,196.0,1,0.0,1.0
952,952,0.41138709832642306,0.4,0.0,268.0,998.0,0.0,184.0,1,1.0,1.0
953,953,-0.37895131040998054,-0.4,1.0,388.0,549.0,1.0,473.0,1,1.0,0.0
954,954,-0.18000776185333722,-0.2,1.0,469.0,817.0,1.0,594.0,1,1.0,0.0
955,955,0.711386856776339,0.7,1.0,366.0,723.0,1.0,31.0,1,0.0,1.0
956,956,0.2928884829096269,0.3,0.0,412.0,774.0,0.0,184.0,1,1.0,1.0
957,957,-0.8558785587741159,-0.9,0.0,381.0,642.0,0.0,117.0,1,0.0,0.0
958,958,-0.40411988609993105,-0.4,1.0,458.0,906.0,1.0,376.0,1,1.0,0.0
959,959,-0.09117140340218644,-0.1,1.0,263.0,592.0,1.0,1205.0,1,1.0,0.0
960,960,0.13152696829957866,0.1,1.0,499.0,841.0,1.0,690.0,1,0.0,1.0
961,961,0.7553796410053749,0.8,0.0,253.0,518.0,0.0,199.0,1,1.0,1.0
962,962,-0.7242983361503192,-0.7,1.0,285.0,636.0,1.0,139.0,1,1.0,0.0
963,963,-0.7860884039878667,-0.8,1.0,299.0,666.0,1.0,275.0,1,1.0,0.0
964,964,0.6442714316254926,0.6,1.0,345.0,860.0,1.0,125.0,1,0.0,1.0
965,965,0.15521877982784782,0.2,0.0,262.0,505.0,0.0,853.0,1,1.0,1.0
966,966,-0.6343340796443593,-0.6,1.0,288.0,792.0,1.0,160.0,1,1.0,0.0
967,967,-0.8658908791297999,-0.9,1.0,402.0,662.0,1.0,196.0,1,1.0,0.0
968,968,0.8299967764553408,0.8,0.0,369.0,863.0,0.0,148.0,1,1.0,1.0
969,969,-0.29052560526911686,-0.3,0.0,436.0,809.0,0.0,315.0,1,0.0,0.0
970,970,0.1757163447020781,0.2,1.0,434.0,662.0,1.0,654.0,1,0.0,1.0
971,971,0.49259475550592235,0.5,0.0,478.0,703.0,1.0,-481.0,0,1.0,0.0
972,972,-0.6316630420028783,-0.6,1.0,338.0,913.0,1.0,329.0,1,1.0,0.0
973,973,0.5941730590367277,0.6,0.0,371.0,629.0,0.0,270.0,1,1.0,1.0
974,974,-0.12063394704151076,-0.1,0.0,357.0,670.0,0.0,2913.0,1,0.0,0.0
975,975,0.48323876232767626,0.5,0.0,276.0,867.0,0.0,237.0,1,1.0,1.0
976,976,-0.6593228698364548,-0.7,0.0,423.0,681.0,0.0,196.0,1,0.0,0.0
977,977,0.8881276064000857,0.9,1.0,421.0,662.0,1.0,97.0,1,0.0,1.0
978,978,-0.5499069492911989,-0.5,0.0,483.0,989.0,0.0,138.0,1,0.0,0.0
979,979,0.24079627317425578,0.2,0.0,417.0,661.0,0.0,502.0,1,1.0,1.0
980,980,-0.1033631695032361,-0.1,0.0,323.0,597.0,0.0,700.0,1,0.0,0.0
981,981,0.06607582109046228,0.1,1.0,459.0,714.0,1.0,3827.0,1,0.0,1.0
982,982,-0.8285672855196714,-0.8,0.0,369.0,759.0,0.0,122.0,1,0.0,0.0
983,983,-0.12233456622069516,-0.1,1.0,358.0,825.0,1.0,1267.0,1,1.0,0.0
984,984,0.8599667659612683,0.9,0.0,480.0,652.0,0.0,38.0,1,1.0,1.0
985,985,0.6491603216825549,0.6,1.0,274.0,685.0,1.0,151.0,1,0.0,1.0
986,986,0.38339574707057233,0.4,1.0,442.0,967.0,1.0,381.0,1,0.0,1.0
987,987,-0.3818105409741186,-0.4,0.0,400.0,738.0,0.0,192.0,1,0.0,0.0
988,988,0.04314353382791858,0.0,1.0,284.0,710.0,1.0,1696.0,1,0.0,1.0
989,989,0.7833935270021027,0.8,0.0,347.0,847.0,1.0,-174.0,0,1.0,0.0
990,990,0.5740209179178307,0.6,1.0,386.0,604.0,1.0,220.0,1,0.0,1.0
991,991,0.7549128768968044,0.8,1.0,363.0,710.0,1.0,87.0,1,0.0,1.0
992,992,-0.1714189692136734,-0.2,1.0,348.0,881.0,1.0,361.0,1,1.0,0.0
993,993,0.2411633222766988,0.2,0.0,310.0,637.0,0.0,163.0,1,1.0,1.0
994,994,-0.5717871773562754,-0.6,0.0,493.0,729.0,0.0,138.0,1,0.0,0.0
995,995,0.8341343283044865,0.8,0.0,330.0,914.0,0.0,66.0,1,1.0,1.0
996,996,0.7883799058069706,0.8,1.0,269.0,888.0,1.0,83.0,1,0.0,1.0
997,997,-0.6035079175998512,-0.6,0.0,324.0,707.0,0.0,289.0,1,0.0,0.0
998,998,0.6363967393895801,0.6,1.0,307.0,931.0,0.0,-518.0,0,0.0,0.0
999,999,0.6666472790307721,0.7,1.0,270.0,647.0,1.0,183.0,1,0.0,1.0
1000,1000,0.5771010949257199,0.6,0.0,481.0,907.0,0.0,82.0,1,1.0,1.0
1001,1001,0.5852674953557345,0.6,1.0,419.0,510.0,1.0,111.0,1,0.0,1.0
1002,1002,0.8566076425960202,0.9,0.0,407.0,625.0,0.0,158.0,1,1.0,1.0
1003,1003,0.43347863068326487,0.4,0.0,450.0,924.0,0.0,146.0,1,1.0,1.0
1004,1004,0.06235398901706446,0.1,1.0,415.0,953.0,1.0,582.0,1,0.0,1.0
1005,1005,-0.2691191458200052,-0.3,0.0,396.0,549.0,0.0,755.0,1,0.0,0.0
1006,1006,-0.8494014685244079,-0.8,1.0,403.0,805.0,1.0,212.0,1,1.0,0.0
1007,1007,0.10893477781163707,0.1,0.0,446.0,965.0,0.0,499.0,1,1.0,1.0
1008,1008,-0.689616175338166,-0.7,0.0,283.0,933.0,0.0,204.0,1,0.0,0.0
1009,1009,0.26461985824758416,0.3,1.0,293.0,554.0,1.0,713.0,1,0.0,1.0
1010,1010,0.653790097919411,0.7,0.0,288.0,967.0,0.0,75.0,1,1.0,1.0
1011,1011,0.11345803361819862,0.1,1.0,395.0,827.0,1.0,1738.0,1,0.0,1.0
1012,1012,0.11589892495001053,0.1,0.0,313.0,594.0,0.0,333.0,1,1.0,1.0
1013,1013,0.13158804489603948,0.1,0.0,335.0,628.0,0.0,847.0,1,1.0,1.0
1014,1014,-0.14254183747115856,-0.1,0.0,371.0,853.0,0.0,1426.0,1,0.0,0.0
1015,1015,0.6426804969369208,0.6,1.0,371.0,671.0,0.0,-302.0,0,0.0,0.0
1016,1016,0.4864660585489361,0.5,1.0,311.0,645.0,1.0,114.0,1,0.0,1.0
1017,1017,-0.557926932156938,-0.6,0.0,494.0,660.0,0.0,186.0,1,0.0,0.0
1018,1018,-0.8861070264891024,-0.9,1.0,408.0,707.0,1.0,275.0,1,1.0,0.0
1019,1019,0.8603719470785459,0.9,1.0,261.0,864.0,1.0,45.0,1,0.0,1.0
1020,1020,0.8619625693451197,0.9,1.0,322.0,851.0,0.0,-273.0,0,0.0,0.0
1021,1021,-0.09586705887279157,-0.1,0.0,370.0,616.0,0.0,174.0,1,0.0,0.0
1022,1022,0.7289253324627941,0.7,1.0,344.0,750.0,1.0,166.0,1,0.0,1.0
1023,1023,-0.6294982850599768,-0.6,1.0,404.0,572.0,1.0,84.0,1,1.0,0.0
1024,1024,-0.583554987683724,-0.6,0.0,398.0,700.0,0.0,222.0,1,0.0,0.0
1025,1025,0.10471568565339517,0.1,0.0,372.0,906.0,0.0,22.0,1,1.0,1.0
1026,1026,0.2752745668438522,0.3,1.0,400.0,981.0,1.0,469.0,1,0.0,1.0
1027,1027,0.19082253566603058,0.2,0.0,259.0,641.0,0.0,190.0,1,1.0,1.0
1028,1028,-0.751290788023126,-0.8,1.0,383.0,810.0,1.0,367.0,1,1.0,0.0
1029,1029,-0.8223788550344023,-0.8,1.0,399.0,645.0,1.0,126.0,1,1.0,0.0
1030,1030,0.5678561791150353,0.6,0.0,478.0,697.0,0.0,125.0,1,1.0,1.0
1031,1031,0.09139949170378137,0.1,0.0,402.0,893.0,0.0,1595.0,1,1.0,1.0
1032,1032,0.5922428968127594,0.6,0.0,449.0,743.0,0.0,-132.0,1,1.0,1.0
1033,1033,-0.23279144605974045,-0.2,0.0,289.0,881.0,0.0,670.0,1,0.0,0.0
1034,1034,0.5315169321477048,0.5,0.0,454.0,770.0,0.0,206.0,1,1.0,1.0
1035,1035,-0.2594941654162707,-0.3,1.0,387.0,649.0,1.0,504.0,1,1.0,0.0
1036,1036,-0.8913306755582481,-0.9,1.0,333.0,611.0,1.0,196.0,1,1.0,0.0
1037,1037,0.8570514460704318,0.9,0.0,375.0,561.0,0.0,104.0,1,1.0,1.0
1038,1038,0.08908471141043406,0.1,0.0,363.0,528.0,0.0,1079.0,1,1.0,1.0
1039,1039,0.4859166424429894,0.5,0.0,320.0,728.0,0.0,112.0,1,1.0,1.0
1040,1040,0.28406808382717663,0.3,1.0,319.0,756.0,1.0,315.0,1,0.0,1.0
1041,1041,-0.20894829345725385,-0.2,1.0,303.0,776.0,1.0,861.0,1,1.0,0.0
1042,1042,-0.701767033854311,-0.7,0.0,359.0,524.0,0.0,407.0,1,0.0,0.0
1043,1043,-0.5641746631401776,-0.6,1.0,353.0,762.0,1.0,155.0,1,1.0,0.0
1044,1044,-0.13111144986669054,-0.1,0.0,273.0,782.0,0.0,445.0,1,0.0,0.0
1045,1045,-0.27201606878554296,-0.3,0.0,390.0,708.0,0.0,712.0,1,0.0,0.0
1046,1046,-0.513434174415321,-0.5,0.0,454.0,717.0,0.0,439.0,1,0.0,0.0
1047,1047,-0.1770536447501615,-0.2,1.0,361.0,920.0,1.0,1119.0,1,1.0,0.0
1048,1048,0.5381519105225644,0.5,1.0,420.0,551.0,1.0,159.0,1,0.0,1.0
1049,1049,0.03711305308622659,0.0,0.0,445.0,742.0,0.0,1863.0,1,1.0,1.0
1050,1050,0.8609304220023936,0.9,1.0,469.0,940.0,1.0,131.0,1,0.0,1.0
1051,1051,0.5300633370638267,0.5,1.0,281.0,572.0,1.0,97.0,1,0.0,1.0
1052,1052,-0.07661456641556297,-0.1,0.0,250.0,561.0,0.0,199.0,1,0.0,0.0
1053,1053,0.6182174024310326,0.6,1.0,348.0,603.0,1.0,129.0,1,0.0,1.0
1054,1054,-0.20814376388930245,-0.2,0.0,354.0,634.0,0.0,512.0,1,0.0,0.0
1055,1055,0.48408093525378637,0.5,0.0,468.0,568.0,1.0,-176.0,0,1.0,0.0
1056,1056,-0.11854411839129098,-0.1,1.0,417.0,777.0,0.0,-354.0,0,1.0,1.0
1057,1057,0.45268360297780885,0.5,0.0,380.0,621.0,0.0,369.0,1,1.0,1.0
1058,1058,0.45888603503524605,0.5,0.0,352.0,753.0,0.0,115.0,1,1.0,1.0
1059,1059,-0.21930289941273728,-0.2,1.0,443.0,521.0,1.0,956.0,1,1.0,0.0
1060,1060,-0.8794057636821278,-0.9,1.0,258.0,597.0,1.0,135.0,1,1.0,0.0
1061,1061,0.5870001907390708,0.6,0.0,484.0,579.0,0.0,137.0,1,1.0,1.0
1062,1062,0.17626524868138727,0.2,1.0,314.0,993.0,1.0,893.0,1,0.0,1.0
1063,1063,0.5795835620335462,0.6,1.0,467.0,639.0,1.0,214.0,1,0.0,1.0
1064,1064,-0.806447579259548,-0.8,0.0,496.0,572.0,0.0,382.0,1,0.0,0.0
1065,1065,-0.3483887199028787,-0.3,0.0,463.0,785.0,0.0,402.0,1,0.0,0.0
1066,1066,0.69111901840842,0.7,0.0,415.0,593.0,0.0,172.0,1,1.0,1.0
1067,1067,-0.5382057697590992,-0.5,0.0,485.0,956.0,0.0,169.0,1,0.0,0.0
1068,1068,0.0528844408495156,0.1,1.0,334.0,888.0,0.0,-112.0,0,0.0,0.0
1069,1069,0.07770310826679361,0.1,0.0,312.0,920.0,0.0,1408.0,1,1.0,1.0
1070,1070,-0.6453641552120855,-0.6,0.0,258.0,914.0,0.0,218.0,1,0.0,0.0
1071,1071,-0.5513976599758434,-0.6,1.0,311.0,567.0,1.0,142.0,1,1.0,0.0
1072,1072,0.23691245057050303,0.2,1.0,477.0,854.0,1.0,199.0,1,0.0,1.0
1073,1073,-0.5753910296830167,-0.6,0.0,437.0,624.0,0.0,169.0,1,0.0,0.0
1074,1074,-0.2570151292588565,-0.3,1.0,332.0,550.0,1.0,418.0,1,1.0,0.0
1075,1075,-0.8829991765522334,-0.9,1.0,319.0,628.0,1.0,113.0,1,1.0,0.0
1076,1076,0.4440538103591464,0.4,1.0,366.0,859.0,1.0,55.0,1,0.0,1.0
1077,1077,-0.3543816367066569,-0.4,1.0,350.0,933.0,1.0,257.0,1,1.0,0.0
1078,1078,-0.43853891618662943,-0.4,0.0,478.0,518.0,0.0,94.0,1,0.0,0.0
1079,1079,0.5792477471153769,0.6,0.0,442.0,976.0,0.0,22.0,1,1.0,1.0
1080,1080,0.7296652121074257,0.7,1.0,294.0,842.0,1.0,134.0,1,0.0,1.0
1081,1081,-0.08422901545265038,-0.1,1.0,412.0,871.0,1.0,927.0,1,1.0,0.0
1082,1082,0.5656106748057478,0.6,1.0,343.0,966.0,1.0,141.0,1,0.0,1.0
1083,1083,-0.41170529421622154,-0.4,0.0,377.0,598.0,0.0,485.0,1,0.0,0.0
1084,1084,0.5576453613837996,0.6,1.0,351.0,689.0,1.0,210.0,1,0.0,1.0
1085,1085,0.7340249322236522,0.7,1.0,449.0,576.0,1.0,135.0,1,0.0,1.0
1086,1086,-0.8442172139494433,-0.8,0.0,359.0,911.0,0.0,160.0,1,0.0,0.0
1087,1087,-0.3639610928877508,-0.4,1.0,392.0,702.0,1.0,656.0,1,1.0,0.0
1088,1088,0.2717794164367894,0.3,1.0,468.0,714.0,1.0,568.0,1,0.0,1.0
1089,1089,0.33287015002238507,0.3,0.0,456.0,686.0,0.0,378.0,1,1.0,1.0
1090,1090,-0.7277236060774694,-0.7,1.0,437.0,836.0,1.0,87.0,1,1.0,0.0
1091,1091,0.3923241583426077,0.4,1.0,369.0,862.0,1.0,169.0,1,0.0,1.0
1092,1092,0.05242198483946292,0.1,0.0,281.0,753.0,0.0,1096.0,1,1.0,1.0
1093,1093,0.6257632239942238,0.6,0.0,362.0,586.0,0.0,122.0,1,1.0,1.0
1094,1094,0.7734694161631431,0.8,0.0,256.0,578.0,0.0,136.0,1,1.0,1.0
1095,1095,-0.5072237288070884,-0.5,0.0,322.0,999.0,0.0,249.0,1,0.0,0.0
1096,1096,-0.5072353708470629,-0.5,1.0,309.0,501.0,1.0,180.0,1,1.0,0.0
1097,1097,-0.28941775241711853,-0.3,1.0,391.0,943.0,1.0,146.0,1,1.0,0.0
1098,1098,0.4087907657941937,0.4,0.0,347.0,617.0,0.0,6.0,1,1.0,1.0
1099,1099,-0.43428108665242476,-0.4,1.0,396.0,964.0,1.0,310.0,1,1.0,0.0
1100,1100,0.7234593136650224,0.7,1.0,364.0,867.0,1.0,129.0,1,0.0,1.0
1101,1101,-0.5155209444604811,-0.5,1.0,421.0,949.0,1.0,120.0,1,1.0,0.0
1102,1102,-0.7061384787099013,-0.7,1.0,449.0,732.0,1.0,209.0,1,1.0,0.0
1103,1103,-0.534763811425417,-0.5,0.0,464.0,780.0,0.0,186.0,1,0.0,0.0
1104,1104,-0.8671142398310312,-0.9,1.0,499.0,681.0,1.0,150.0,1,1.0,0.0
1105,1105,-0.8361128359975439,-0.8,0.0,398.0,965.0,0.0,237.0,1,0.0,0.0
1106,1106,0.713771458069283,0.7,1.0,315.0,989.0,1.0,76.0,1,0.0,1.0
1107,1107,0.8396244707109412,0.8,1.0,309.0,832.0,1.0,159.0,1,0.0,1.0
1108,1108,-0.8554322260151166,-0.9,0.0,318.0,921.0,0.0,171.0,1,0.0,0.0
1109,1109,0.03889436078244313,0.0,1.0,326.0,611.0,0.0,-517.0,0,0.0,0.0
1110,1110,0.08140538592120328,0.1,0.0,492.0,547.0,0.0,161.0,1,1.0,1.0
1111,1111,-0.3793540295517427,-0.4,1.0,421.0,551.0,1.0,358.0,1,1.0,0.0
1112,1112,0.10135194637186473,0.1,1.0,492.0,770.0,1.0,3738.0,1,0.0,1.0
1113,1113,0.594904982657695,0.6,1.0,489.0,616.0,1.0,125.0,1,0.0,1.0
1114,1114,0.718446038351204,0.7,0.0,338.0,751.0,0.0,131.0,1,1.0,1.0
1115,1115,0.5839091378048576,0.6,0.0,342.0,666.0,0.0,92.0,1,1.0,1.0
1116,1116,-0.47354957568927786,-0.5,1.0,264.0,675.0,1.0,411.0,1,1.0,0.0
1117,1117,-0.32458138091529165,-0.3,1.0,260.0,937.0,1.0,563.0,1,1.0,0.0
1118,1118,0.6929589677155344,0.7,1.0,264.0,928.0,1.0,148.0,1,0.0,1.0
1119,1119,-0.6673278721908604,-0.7,0.0,388.0,958.0,0.0,304.0,1,0.0,0.0
1120,1120,0.012292845141985365,0.0,0.0,409.0,672.0,0.0,1129.0,1,1.0,1.0
1121,1121,0.27117371839297755,0.3,0.0,420.0,745.0,0.0,145.0,1,1.0,1.0
1122,1122,0.7125448821059001,0.7,0.0,260.0,931.0,0.0,109.0,1,1.0,1.0
1123,1123,-0.6374914626041872,-0.6,1.0,368.0,866.0,1.0,206.0,1,1.0,0.0
1124,1124,0.8014998658925679,0.8,1.0,398.0,996.0,1.0,136.0,1,0.0,1.0
1125,1125,0.5679394472114064,0.6,0.0,409.0,893.0,0.0,88.0,1,1.0,1.0
1126,1126,-0.06102563827492258,-0.1,1.0,431.0,608.0,1.0,3961.0,1,1.0,0.0
1127,1127,0.6241876585471925,0.6,0.0,287.0,936.0,0.0,117.0,1,1.0,1.0
1128,1128,0.5896005714980438,0.6,0.0,381.0,936.0,0.0,-57.0,1,1.0,1.0
1129,1129,-0.16413306923726267,-0.2,0.0,460.0,773.0,0.0,517.0,1,0.0,0.0
1130,1130,-0.7619237695834044,-0.8,0.0,337.0,968.0,0.0,265.0,1,0.0,0.0
1131,1131,-0.5013682663393154,-0.5,0.0,378.0,831.0,0.0,131.0,1,0.0,0.0
1132,1132,0.12297921083090746,0.1,1.0,414.0,656.0,1.0,1620.0,1,0.0,1.0
1133,1133,0.33481893027192944,0.3,1.0,300.0,899.0,1.0,161.0,1,0.0,1.0
1134,1134,0.10852639077990289,0.1,1.0,376.0,545.0,1.0,1279.0,1,0.0,1.0
1135,1135,0.474537277986086,0.5,1.0,473.0,860.0,1.0,227.0,1,0.0,1.0
1136,1136,0.5084000296821637,0.5,1.0,256.0,846.0,1.0,188.0,1,0.0,1.0
1137,1137,-0.680418713177636,-0.7,1.0,418.0,930.0,1.0,192.0,1,1.0,0.0
1138,1138,-0.52648500565851,-0.5,1.0,293.0,719.0,1.0,178.0,1,1.0,0.0
1139,1139,-0.8147958256682977,-0.8,1.0,467.0,840.0,1.0,293.0,1,1.0,0.0
1140,1140,0.4648591377755181,0.5,0.0,424.0,695.0,0.0,241.0,1,1.0,1.0
1141,1141,-0.0023095955687612024,-0.0,0.0,381.0,828.0,0.0,541.0,1,0.0,0.0
1142,1142,0.439974095750329,0.4,0.0,283.0,630.0,0.0,77.0,1,1.0,1.0
1143,1143,0.23766266215652443,0.2,1.0,413.0,894.0,1.0,323.0,1,0.0,1.0
1144,1144,-0.44862411179536515,-0.4,1.0,389.0,817.0,1.0,494.0,1,1.0,0.0
1145,1145,-0.8099674727275822,-0.8,1.0,292.0,966.0,1.0,262.0,1,1.0,0.0
1146,1146,-0.46529389581427905,-0.5,0.0,438.0,772.0,0.0,380.0,1,0.0,0.0
1147,1147,0.8008681113616193,0.8,1.0,294.0,561.0,1.0,75.0,1,0.0,1.0
1148,1148,0.1028750055143316,0.1,1.0,451.0,782.0,1.0,1287.0,1,0.0,1.0
1149,1149,-0.5355295933111759,-0.5,0.0,347.0,707.0,0.0,176.0,1,0.0,0.0
1150,1150,0.36401880712875345,0.4,1.0,301.0,791.0,1.0,368.0,1,0.0,1.0
1151,1151,-0.11768911980834551,-0.1,1.0,326.0,534.0,1.0,-250.0,1,1.0,0.0
1152,1152,-0.040460016424575196,-0.0,0.0,375.0,811.0,0.0,3814.0,1,0.0,0.0
1153,1153,0.24374749715588784,0.2,0.0,420.0,889.0,0.0,181.0,1,1.0,1.0
1154,1154,0.3697889990736182,0.4,1.0,459.0,928.0,1.0,323.0,1,0.0,1.0
1155,1155,0.8859896135996254,0.9,0.0,472.0,837.0,0.0,61.0,1,1.0,1.0
1156,1156,0.3205795144238074,0.3,0.0,283.0,694.0,0.0,373.0,1,1.0,1.0
1157,1157,0.4818231916668586,0.5,0.0,379.0,731.0,0.0,230.0,1,1.0,1.0
1158,1158,-0.8783686129567144,-0.9,1.0,269.0,678.0,1.0,103.0,1,1.0,0.0
1159,1159,-0.316375228050905,-0.3,1.0,443.0,899.0,1.0,628.0,1,1.0,0.0
1160,1160,0.18010161450250062,0.2,1.0,263.0,858.0,1.0,819.0,1,0.0,1.0
1161,1161,0.8647873055773972,0.9,1.0,343.0,961.0,0.0,-584.0,0,0.0,0.0
1162,1162,0.6525232019207826,0.7,0.0,415.0,506.0,0.0,169.0,1,1.0,1.0
1163,1163,0.7833879467345887,0.8,1.0,457.0,537.0,1.0,166.0,1,0.0,1.0
1164,1164,-0.493103832908725,-0.5,0.0,327.0,990.0,0.0,243.0,1,0.0,0.0
1165,1165,-0.6071327251576037,-0.6,1.0,304.0,665.0,1.0,181.0,1,1.0,0.0
1166,1166,0.03550396881739404,0.0,1.0,349.0,797.0,1.0,3854.0,1,0.0,1.0
1167,1167,-0.11027968097236673,-0.1,0.0,469.0,730.0,0.0,891.0,1,0.0,0.0
1168,1168,0.6923409487216602,0.7,1.0,388.0,755.0,1.0,247.0,1,0.0,1.0
1169,1169,0.5691434837847734,0.6,1.0,302.0,814.0,1.0,154.0,1,0.0,1.0
1170,1170,0.501112450149149,0.5,1.0,355.0,722.0,1.0,213.0,1,0.0,1.0
1171,1171,-0.18799754285788906,-0.2,1.0,413.0,539.0,1.0,628.0,1,1.0,0.0
1172,1172,-0.3720880745254266,-0.4,1.0,409.0,768.0,1.0,313.0,1,1.0,0.0
1173,1173,-0.8120573910529733,-0.8,1.0,471.0,936.0,1.0,113.0,1,1.0,0.0
1174,1174,0.11166753893855763,0.1,1.0,329.0,982.0,0.0,-111.0,0,0.0,0.0
1175,1175,-0.716318002924493,-0.7,0.0,419.0,742.0,0.0,99.0,1,0.0,0.0
1176,1176,-0.31895382202378764,-0.3,0.0,417.0,992.0,0.0,261.0,1,0.0,0.0
1177,1177,0.5963874682327298,0.6,0.0,254.0,888.0,0.0,158.0,1,1.0,1.0
1178,1178,-0.8680531383755555,-0.9,0.0,443.0,872.0,0.0,165.0,1,0.0,0.0
1179,1179,0.5933485157552166,0.6,0.0,328.0,886.0,0.0,216.0,1,1.0,1.0
1180,1180,0.7634680022032937,0.8,1.0,472.0,744.0,1.0,124.0,1,0.0,1.0
1181,1181,-0.3236890664112565,-0.3,0.0,276.0,971.0,0.0,353.0,1,0.0,0.0
1182,1182,0.6015067772426016,0.6,1.0,435.0,558.0,1.0,87.0,1,0.0,1.0
1183,1183,0.039388929245110726,0.0,0.0,447.0,883.0,0.0,990.0,1,1.0,1.0
1184,1184,-0.177264347758325,-0.2,0.0,471.0,900.0,0.0,349.0,1,0.0,0.0
1185,1185,0.5123828193062144,0.5,1.0,483.0,664.0,1.0,103.0,1,0.0,1.0
1186,1186,0.4511207662011286,0.5,0.0,378.0,730.0,0.0,282.0,1,1.0,1.0
1187,1187,0.2691143428617716,0.3,0.0,435.0,761.0,0.0,684.0,1,1.0,1.0
1188,1188,0.24360872089532914,0.2,0.0,371.0,579.0,0.0,410.0,1,1.0,1.0
1189,1189,-0.7047622354331058,-0.7,0.0,346.0,957.0,0.0,67.0,1,0.0,0.0
1190,1190,0.48101718517498726,0.5,0.0,490.0,879.0,0.0,51.0,1,1.0,1.0
1191,1191,-0.790773547260258,-0.8,1.0,398.0,866.0,1.0,276.0,1,1.0,0.0
1192,1192,-0.6140624764245527,-0.6,1.0,493.0,585.0,1.0,472.0,1,1.0,0.0
1193,1193,-0.43562722672760107,-0.4,0.0,470.0,817.0,0.0,233.0,1,0.0,0.0
1194,1194,0.1510882473498426,0.2,0.0,440.0,869.0,1.0,-429.0,0,1.0,0.0
1195,1195,0.5211340812029007,0.5,1.0,376.0,895.0,1.0,199.0,1,0.0,1.0
1196,1196,-0.6711424240139051,-0.7,1.0,311.0,547.0,1.0,192.0,1,1.0,0.0
1197,1197,-0.5531769265051945,-0.6,1.0,390.0,527.0,1.0,273.0,1,1.0,0.0
1198,1198,-0.2681454125340942,-0.3,0.0,481.0,689.0,0.0,270.0,1,0.0,0.0
1199,1199,0.2917760750128323,0.3,1.0,443.0,506.0,1.0,291.0,1,0.0,1.0
1200,1200,-0.14710956437167655,-0.1,0.0,448.0,693.0,0.0,1059.0,1,0.0,0.0
1201,1201,0.5116885451346539,0.5,1.0,317.0,568.0,1.0,65.0,1,0.0,1.0
1202,1202,-0.22389213461923085,-0.2,0.0,381.0,987.0,0.0,812.0,1,0.0,0.0
1203,1203,0.748485607293713,0.7,1.0,353.0,639.0,1.0,168.0,1,0.0,1.0
1204,1204,-0.5958707590279948,-0.6,0.0,385.0,534.0,0.0,91.0,1,0.0,0.0
1205,1205,-0.5432833715087437,-0.5,1.0,397.0,656.0,1.0,217.0,1,1.0,0.0
1206,1206,0.6812852016691303,0.7,0.0,302.0,607.0,0.0,71.0,1,1.0,1.0
1207,1207,-0.42199745996444316,-0.4,1.0,427.0,744.0,1.0,279.0,1,1.0,0.0
1208,1208,-0.7102777761821985,-0.7,1.0,256.0,977.0,1.0,197.0,1,1.0,0.0
1209,1209,0.5114061147675667,0.5,1.0,476.0,513.0,1.0,311.0,1,0.0,1.0
1210,1210,0.19494512067184278,0.2,1.0,305.0,748.0,1.0,2057.0,1,0.0,1.0
1211,1211,-0.2330216791810874,-0.2,1.0,458.0,635.0,1.0,467.0,1,1.0,0.0
1212,1212,-0.3901272928152145,-0.4,0.0,348.0,538.0,0.0,244.0,1,0.0,0.0
1213,1213,0.6676329233106794,0.7,0.0,450.0,642.0,0.0,138.0,1,1.0,1.0
1214,1214,-0.45839843517690776,-0.5,0.0,259.0,706.0,0.0,375.0,1,0.0,0.0
1215,1215,-0.823603154410633,-0.8,1.0,388.0,974.0,1.0,148.0,1,1.0,0.0
1216,1216,0.4881671773543109,0.5,0.0,403.0,658.0,0.0,229.0,1,1.0,1.0
1217,1217,0.08805223499849302,0.1,1.0,386.0,971.0,1.0,2133.0,1,0.0,1.0
1218,1218,0.4895555286661909,0.5,1.0,452.0,913.0,1.0,265.0,1,0.0,1.0
1219,1219,0.16613387225926346,0.2,1.0,339.0,570.0,1.0,471.0,1,0.0,1.0
1220,1220,-0.29289021929145853,-0.3,0.0,336.0,799.0,0.0,1025.0,1,0.0,0.0
1221,1221,-0.1931771971959253,-0.2,1.0,490.0,879.0,1.0,1071.0,1,1.0,0.0
1222,1222,-0.20993086542610195,-0.2,1.0,321.0,918.0,1.0,751.0,1,1.0,0.0
1223,1223,-0.16491073725911753,-0.2,1.0,283.0,957.0,1.0,920.0,1,1.0,0.0
1224,1224,0.1260353099642707,0.1,0.0,361.0,680.0,0.0,719.0,1,1.0,1.0
1225,1225,-0.15899581165262378,-0.2,0.0,403.0,753.0,0.0,934.0,1,0.0,0.0
1226,1226,0.3966993934621811,0.4,0.0,332.0,683.0,0.0,225.0,1,1.0,1.0
1227,1227,-0.28999791728136826,-0.3,0.0,363.0,920.0,0.0,177.0,1,0.0,0.0
1228,1228,0.15372039284121752,0.2,1.0,456.0,633.0,1.0,591.0,1,0.0,1.0
1229,1229,0.8802559657180428,0.9,1.0,357.0,718.0,1.0,165.0,1,0.0,1.0
1230,1230,0.5507688907224185,0.6,0.0,361.0,589.0,0.0,300.0,1,1.0,1.0
1231,1231,-0.6067738604706561,-0.6,0.0,422.0,827.0,0.0,-289.0,1,0.0,0.0
1232,1232,-0.8626934537388888,-0.9,1.0,327.0,915.0,1.0,288.0,1,1.0,0.0
1233,1233,0.029667625171699297,0.0,0.0,293.0,986.0,0.0,621.0,1,1.0,1.0
1234,1234,-0.7052008401851146,-0.7,0.0,399.0,824.0,0.0,207.0,1,0.0,0.0
1235,1235,-0.21471882462950886,-0.2,1.0,356.0,658.0,1.0,256.0,1,1.0,0.0
1236,1236,0.8115938052703949,0.8,1.0,338.0,811.0,1.0,131.0,1,0.0,1.0
1237,1237,0.6120451771480949,0.6,0.0,328.0,565.0,0.0,217.0,1,1.0,1.0
1238,1238,-0.2557681461519551,-0.3,1.0,458.0,513.0,1.0,99.0,1,1.0,0.0
1239,1239,0.6323817255997778,0.6,1.0,320.0,989.0,1.0,111.0,1,0.0,1.0
1240,1240,0.4807155027065103,0.5,0.0,276.0,511.0,0.0,183.0,1,1.0,1.0
1241,1241,-0.2524578571443278,-0.3,1.0,397.0,511.0,1.0,982.0,1,1.0,0.0
1242,1242,-0.19772598679588793,-0.2,0.0,364.0,997.0,0.0,309.0,1,0.0,0.0
1243,1243,0.7830651791525999,0.8,0.0,259.0,546.0,0.0,45.0,1,1.0,1.0
1244,1244,-0.8461923720931306,-0.8,0.0,316.0,736.0,0.0,128.0,1,0.0,0.0
1245,1245,0.43081809016923567,0.4,1.0,458.0,503.0,1.0,179.0,1,0.0,1.0
1246,1246,0.2703120204067814,0.3,1.0,485.0,874.0,1.0,391.0,1,0.0,1.0
1247,1247,-0.017077077449184408,-0.0,0.0,381.0,837.0,0.0,3782.0,1,0.0,0.0
1248,1248,-0.7549710766658898,-0.8,0.0,287.0,761.0,0.0,2.0,1,0.0,0.0
1249,1249,0.7083400468408368,0.7,1.0,446.0,997.0,1.0,117.0,1,0.0,1.0
1250,1250,0.5706678964288855,0.6,1.0,398.0,885.0,1.0,157.0,1,0.0,1.0
1251,1251,0.0542132633139939,0.1,0.0,347.0,672.0,0.0,2061.0,1,1.0,1.0
1252,1252,0.5920453487106193,0.6,1.0,402.0,553.0,1.0,115.0,1,0.0,1.0
1253,1253,0.28502327247701265,0.3,1.0,273.0,567.0,1.0,950.0,1,0.0,1.0
1254,1254,0.031223745116703006,0.0,0.0,415.0,913.0,0.0,432.0,1,1.0,1.0
1255,1255,0.10210293096419065,0.1,1.0,407.0,525.0,0.0,-412.0,0,0.0,0.0
1256,1256,0.26381354293140935,0.3,0.0,267.0,668.0,0.0,95.0,1,1.0,1.0
1257,1257,-0.7179641484160479,-0.7,1.0,478.0,544.0,1.0,158.0,1,1.0,0.0
1258,1258,-0.13939428956306643,-0.1,0.0,496.0,649.0,0.0,825.0,1,0.0,0.0
1259,1259,-0.4502393055068054,-0.5,1.0,415.0,517.0,1.0,198.0,1,1.0,0.0
1260,1260,0.03674942220446398,0.0,1.0,328.0,810.0,1.0,2922.0,1,0.0,1.0
1261,1261,0.5881887308484258,0.6,1.0,475.0,885.0,0.0,-90.0,0,0.0,0.0
1262,1262,-0.3670905188248669,-0.4,0.0,345.0,957.0,0.0,368.0,1,0.0,0.0
1263,1263,0.6415954050522564,0.6,1.0,299.0,595.0,1.0,206.0,1,0.0,1.0
1264,1264,-0.6929509856030392,-0.7,0.0,271.0,676.0,0.0,213.0,1,0.0,0.0
1265,1265,-0.17821114789453407,-0.2,0.0,409.0,933.0,0.0,778.0,1,0.0,0.0
1266,1266,0.11405941304530887,0.1,1.0,344.0,791.0,1.0,1435.0,1,0.0,1.0
1267,1267,-0.2592012973427916,-0.3,1.0,266.0,525.0,1.0,409.0,1,1.0,0.0
1268,1268,-0.35371908269423824,-0.4,1.0,459.0,881.0,1.0,840.0,1,1.0,0.0
1269,1269,0.39335815361776805,0.4,1.0,431.0,972.0,1.0,317.0,1,0.0,1.0
1270,1270,0.2748976110178837,0.3,1.0,268.0,612.0,1.0,180.0,1,0.0,1.0
1271,1271,-0.37315662414809136,-0.4,1.0,451.0,513.0,1.0,346.0,1,1.0,0.0
1272,1272,0.2530148027227118,0.3,1.0,344.0,852.0,1.0,414.0,1,0.0,1.0
1273,1273,-0.5814817607882359,-0.6,0.0,332.0,912.0,0.0,396.0,1,0.0,0.0
1274,1274,-0.5652008482521818,-0.6,0.0,432.0,786.0,0.0,202.0,1,0.0,0.0
1275,1275,0.22774043509837216,0.2,0.0,469.0,859.0,0.0,-48.0,1,1.0,1.0
1276,1276,-0.5658033322491531,-0.6,0.0,454.0,946.0,0.0,270.0,1,0.0,0.0
1277,1277,0.7319331783302424,0.7,0.0,368.0,831.0,0.0,101.0,1,1.0,1.0
1278,1278,0.2732883726155487,0.3,1.0,308.0,719.0,1.0,353.0,1,0.0,1.0
1279,1279,-0.5743935503412682,-0.6,0.0,339.0,507.0,0.0,194.0,1,0.0,0.0
1280,1280,-0.5232065140590247,-0.5,1.0,456.0,825.0,1.0,329.0,1,1.0,0.0
1281,1281,-0.5872778083910017,-0.6,0.0,305.0,971.0,0.0,94.0,1,0.0,0.0
1282,1282,-0.5194858705398884,-0.5,0.0,302.0,813.0,0.0,485.0,1,0.0,0.0
1283,1283,-0.09498791186958566,-0.1,1.0,346.0,575.0,1.0,839.0,1,1.0,0.0
1284,1284,-0.2940472741019824,-0.3,0.0,474.0,911.0,0.0,435.0,1,0.0,0.0
1285,1285,0.4964113117161243,0.5,0.0,330.0,535.0,0.0,235.0,1,1.0,1.0
1286,1286,-0.8585756902250028,-0.9,1.0,340.0,575.0,1.0,195.0,1,1.0,0.0
1287,1287,0.23478133999038409,0.2,1.0,329.0,856.0,1.0,575.0,1,0.0,1.0
1288,1288,0.5971046883090757,0.6,0.0,491.0,631.0,0.0,258.0,1,1.0,1.0
1289,1289,-0.27183585133800336,-0.3,0.0,436.0,523.0,0.0,271.0,1,0.0,0.0
1290,1290,-0.002687809423547627,-0.0,1.0,373.0,992.0,1.0,1705.0,1,1.0,0.0
1291,1291,0.7320727317794958,0.7,0.0,478.0,834.0,0.0,148.0,1,1.0,1.0
1292,1292,-0.039990039278541833,-0.0,0.0,395.0,952.0,0.0,-67.0,1,0.0,0.0
1293,1293,0.34390422604335125,0.3,1.0,303.0,785.0,1.0,332.0,1,0.0,1.0
1294,1294,-0.3305639662522134,-0.3,0.0,413.0,764.0,0.0,93.0,1,0.0,0.0
1295,1295,0.05317615807546516,0.1,0.0,477.0,992.0,0.0,2801.0,1,1.0,1.0
1296,1296,-0.41701227986342215,-0.4,0.0,473.0,633.0,0.0,164.0,1,0.0,0.0
1297,1297,-0.7963098828839895,-0.8,0.0,253.0,574.0,0.0,133.0,1,0.0,0.0
1298,1298,-0.12396244189539263,-0.1,1.0,443.0,528.0,1.0,889.0,1,1.0,0.0
1299,1299,-0.8557216183972897,-0.9,0.0,467.0,827.0,0.0,126.0,1,0.0,0.0
1300,1300,-0.32267381651273397,-0.3,0.0,473.0,701.0,0.0,506.0,1,0.0,0.0
1301,1301,-0.14723972729599577,-0.1,0.0,368.0,816.0,0.0,936.0,1,0.0,0.0
1302,1302,0.44549194244141666,0.4,0.0,378.0,920.0,0.0,102.0,1,1.0,1.0
1303,1303,0.7424680031663576,0.7,0.0,332.0,946.0,0.0,192.0,1,1.0,1.0
1304,1304,0.26607151788664873,0.3,1.0,365.0,582.0,1.0,453.0,1,0.0,1.0
1305,1305,0.7833178822330559,0.8,1.0,298.0,907.0,1.0,95.0,1,0.0,1.0
1306,1306,0.3731348352010818,0.4,1.0,382.0,710.0,1.0,248.0,1,0.0,1.0
1307,1307,-0.21670879583070413,-0.2,0.0,279.0,641.0,0.0,880.0,1,0.0,0.0
1308,1308,0.06675111570813297,0.1,1.0,345.0,611.0,0.0,-226.0,0,0.0,0.0
1309,1309,-0.5314601081360959,-0.5,0.0,285.0,936.0,0.0,279.0,1,0.0,0.0
1310,1310,-0.26234991338599256,-0.3,1.0,311.0,852.0,1.0,1487.0,1,1.0,0.0
1311,1311,0.32081420911241987,0.3,0.0,358.0,662.0,0.0,500.0,1,1.0,1.0
1312,1312,-0.6980440446748705,-0.7,1.0,315.0,555.0,1.0,230.0,1,1.0,0.0
1313,1313,0.3917435593511852,0.4,0.0,395.0,724.0,0.0,221.0,1,1.0,1.0
1314,1314,-0.6454760833600399,-0.6,1.0,450.0,635.0,1.0,145.0,1,1.0,0.0
1315,1315,0.26237536982182663,0.3,1.0,273.0,779.0,1.0,228.0,1,0.0,1.0
1316,1316,0.14398736379638477,0.1,1.0,491.0,541.0,1.0,358.0,1,0.0,1.0
1317,1317,-0.7221887999907473,-0.7,1.0,478.0,598.0,1.0,314.0,1,1.0,0.0
1318,1318,-0.43799512763425347,-0.4,1.0,438.0,557.0,1.0,155.0,1,1.0,0.0
1319,1319,0.019286730435098876,0.0,1.0,368.0,869.0,1.0,3763.0,1,0.0,1.0
1320,1320,0.6478257354959992,0.6,0.0,494.0,705.0,0.0,121.0,1,1.0,1.0
1321,1321,0.39305529764317193,0.4,0.0,428.0,927.0,0.0,305.0,1,1.0,1.0
1322,1322,0.7154585858832919,0.7,1.0,332.0,715.0,1.0,113.0,1,0.0,1.0
1323,1323,0.7326021560835899,0.7,1.0,499.0,920.0,1.0,91.0,1,0.0,1.0
1324,1324,-0.004681502006952276,-0.0,1.0,463.0,965.0,0.0,512.0,0,1.0,1.0
1325,1325,-0.8902989871479922,-0.9,0.0,314.0,668.0,0.0,-392.0,1,0.0,0.0
1326,1326,-0.5490673088540485,-0.5,0.0,269.0,763.0,0.0,268.0,1,0.0,0.0
1327,1327,-0.5284738876219222,-0.5,0.0,460.0,962.0,0.0,198.0,1,0.0,0.0
1328,1328,-0.40824023353987626,-0.4,1.0,258.0,780.0,1.0,712.0,1,1.0,0.0
1329,1329,0.18328668346909327,0.2,0.0,410.0,989.0,1.0,-669.0,0,1.0,0.0
1330,1330,0.5791358490398696,0.6,0.0,315.0,944.0,1.0,-379.0,0,1.0,0.0
1331,1331,-0.3977294021350676,-0.4,0.0,479.0,742.0,0.0,249.0,1,0.0,0.0
1332,1332,0.5632051973890418,0.6,1.0,404.0,981.0,1.0,295.0,1,0.0,1.0
1333,1333,-0.7054110014042225,-0.7,1.0,324.0,828.0,1.0,138.0,1,1.0,0.0
1334,1334,0.14426649759822874,0.1,1.0,317.0,751.0,1.0,692.0,1,0.0,1.0
1335,1335,-0.8428659303114279,-0.8,0.0,450.0,993.0,0.0,157.0,1,0.0,0.0
1336,1336,-0.08782921567821556,-0.1,1.0,387.0,608.0,1.0,2765.0,1,1.0,0.0
1337,1337,-0.7088553134825031,-0.7,0.0,299.0,594.0,0.0,217.0,1,0.0,0.0
1338,1338,-0.40726673748435244,-0.4,0.0,308.0,996.0,0.0,696.0,1,0.0,0.0
1339,1339,0.09324503560866793,0.1,0.0,328.0,967.0,0.0,865.0,1,1.0,1.0
1340,1340,0.40394459646441117,0.4,1.0,408.0,742.0,1.0,50.0,1,0.0,1.0
1341,1341,0.07099340905924079,0.1,1.0,259.0,567.0,1.0,3074.0,1,0.0,1.0
1342,1342,-0.3761103313856524,-0.4,0.0,429.0,885.0,0.0,196.0,1,0.0,0.0
1343,1343,-0.442894815499215,-0.4,1.0,350.0,877.0,1.0,-307.0,1,1.0,0.0
1344,1344,-0.09314999838190052,-0.1,0.0,495.0,706.0,0.0,1879.0,1,0.0,0.0
1345,1345,-0.129662489306547,-0.1,1.0,482.0,583.0,1.0,1185.0,1,1.0,0.0
1346,1346,0.15685313900299647,0.2,0.0,314.0,900.0,0.0,256.0,1,1.0,1.0
1347,1347,-0.2112555417779961,-0.2,1.0,355.0,903.0,1.0,542.0,1,1.0,0.0
1348,1348,-0.07934604905905362,-0.1,0.0,261.0,932.0,0.0,-163.0,1,0.0,0.0
1349,1349,-0.38850874597434637,-0.4,0.0,305.0,748.0,0.0,307.0,1,0.0,0.0
1350,1350,-0.8139546179564489,-0.8,0.0,441.0,972.0,0.0,207.0,1,0.0,0.0
1351,1351,0.5148052905848827,0.5,1.0,403.0,981.0,1.0,156.0,1,0.0,1.0
1352,1352,0.6715973703516297,0.7,1.0,410.0,843.0,1.0,177.0,1,0.0,1.0
1353,1353,-0.36041264936989403,-0.4,0.0,250.0,830.0,0.0,20.0,1,0.0,0.0
1354,1354,-0.32585826097120574,-0.3,1.0,364.0,552.0,1.0,654.0,1,1.0,0.0
1355,1355,-0.3227640727433123,-0.3,0.0,437.0,932.0,0.0,-759.0,1,0.0,0.0
1356,1356,0.28092416546926746,0.3,1.0,287.0,553.0,1.0,410.0,1,0.0,1.0
1357,1357,-0.39649811935847834,-0.4,1.0,395.0,835.0,1.0,620.0,1,1.0,0.0
1358,1358,0.06770376057365013,0.1,1.0,452.0,659.0,0.0,-141.0,0,0.0,0.0
1359,1359,-0.7699761504694548,-0.8,1.0,478.0,857.0,1.0,435.0,1,1.0,0.0
1360,1360,-0.032523273356925286,-0.0,0.0,451.0,875.0,0.0,3674.0,1,0.0,0.0
1361,1361,-0.3565855763783642,-0.4,0.0,335.0,896.0,0.0,9.0,1,0.0,0.0
1362,1362,0.4979948550140981,0.5,1.0,499.0,772.0,1.0,269.0,1,0.0,1.0
1363,1363,-0.5946424788264224,-0.6,0.0,398.0,545.0,0.0,207.0,1,0.0,0.0
1364,1364,-0.4283643658930898,-0.4,0.0,251.0,789.0,0.0,-140.0,1,0.0,0.0
1365,1365,-0.40518142583653677,-0.4,0.0,472.0,843.0,0.0,-115.0,1,0.0,0.0
1366,1366,0.649477108516692,0.6,1.0,483.0,829.0,1.0,138.0,1,0.0,1.0
1367,1367,0.25595580023223363,0.3,0.0,433.0,633.0,0.0,184.0,1,1.0,1.0
1368,1368,-0.43987836884466325,-0.4,1.0,278.0,716.0,1.0,466.0,1,1.0,0.0
1369,1369,0.885540309906938,0.9,0.0,441.0,811.0,0.0,88.0,1,1.0,1.0
1370,1370,0.6022806315333463,0.6,1.0,271.0,908.0,1.0,101.0,1,0.0,1.0
1371,1371,-0.5390355440113805,-0.5,0.0,380.0,746.0,0.0,234.0,1,0.0,0.0
1372,1372,-0.4225016317436659,-0.4,0.0,432.0,973.0,0.0,245.0,1,0.0,0.0
1373,1373,0.33750819989431446,0.3,0.0,298.0,567.0,0.0,275.0,1,1.0,1.0
1374,1374,0.406791013189408,0.4,0.0,489.0,872.0,0.0,309.0,1,1.0,1.0
1375,1375,0.20506971686301878,0.2,0.0,426.0,883.0,0.0,291.0,1,1.0,1.0
1376,1376,0.47485277571568385,0.5,0.0,413.0,758.0,1.0,-181.0,0,1.0,0.0
1377,1377,0.29226339805102686,0.3,1.0,346.0,507.0,1.0,307.0,1,0.0,1.0
1378,1378,0.822551916815926,0.8,1.0,281.0,848.0,1.0,181.0,1,0.0,1.0
1379,1379,0.3016249009692221,0.3,1.0,392.0,985.0,1.0,223.0,1,0.0,1.0
1380,1380,0.49500290879058484,0.5,0.0,279.0,573.0,0.0,168.0,1,1.0,1.0
1381,1381,0.009221421709054378,0.0,1.0,356.0,541.0,1.0,4103.0,1,0.0,1.0
1382,1382,-0.3242740855710935,-0.3,1.0,408.0,982.0,1.0,1000.0,1,1.0,0.0
1383,1383,0.09640662581727344,0.1,0.0,276.0,532.0,0.0,1122.0,1,1.0,1.0
1384,1384,-0.7384639016950783,-0.7,0.0,349.0,888.0,0.0,73.0,1,0.0,0.0
1385,1385,-0.04368675982978154,-0.0,1.0,290.0,621.0,0.0,4089.0,0,1.0,1.0
1386,1386,-0.17425796152811301,-0.2,1.0,301.0,819.0,1.0,1950.0,1,1.0,0.0
1387,1387,-0.05839246260823372,-0.1,1.0,471.0,716.0,0.0,3813.0,0,1.0,1.0
1388,1388,-0.15842564469374165,-0.2,1.0,253.0,553.0,1.0,654.0,1,1.0,0.0
1389,1389,-0.19951972782221405,-0.2,1.0,414.0,515.0,1.0,51.0,1,1.0,0.0
1390,1390,0.6869693518506078,0.7,0.0,254.0,577.0,0.0,129.0,1,1.0,1.0
1391,1391,0.8622365138610119,0.9,0.0,497.0,613.0,0.0,160.0,1,1.0,1.0
1392,1392,-0.40871140670589867,-0.4,0.0,342.0,500.0,0.0,458.0,1,0.0,0.0
1393,1393,-0.21143947472137725,-0.2,0.0,330.0,677.0,0.0,853.0,1,0.0,0.0
1394,1394,-0.4807259169738301,-0.5,1.0,461.0,943.0,1.0,146.0,1,1.0,0.0
1395,1395,0.6926448145571594,0.7,0.0,291.0,716.0,0.0,63.0,1,1.0,1.0
1396,1396,0.060860418331809996,0.1,1.0,487.0,591.0,1.0,1322.0,1,0.0,1.0
1397,1397,0.8220433972520195,0.8,1.0,350.0,932.0,1.0,158.0,1,0.0,1.0
1398,1398,-0.6585501046830178,-0.7,0.0,352.0,728.0,0.0,430.0,1,0.0,0.0
1399,1399,0.7997702046284435,0.8,0.0,294.0,803.0,0.0,83.0,1,1.0,1.0
1400,1400,0.8344337537998915,0.8,1.0,292.0,873.0,1.0,45.0,1,0.0,1.0
1401,1401,-0.17570531532054745,-0.2,0.0,335.0,662.0,0.0,1013.0,1,0.0,0.0
1402,1402,-0.8777339761039783,-0.9,0.0,327.0,701.0,0.0,192.0,1,0.0,0.0
1403,1403,-0.8214231626146464,-0.8,1.0,359.0,631.0,1.0,210.0,1,1.0,0.0
1404,1404,-0.726052983409721,-0.7,0.0,363.0,998.0,0.0,259.0,1,0.0,0.0
1405,1405,-0.09863163535928365,-0.1,0.0,473.0,857.0,0.0,-360.0,1,0.0,0.0
1406,1406,-0.03682531844107717,-0.0,1.0,280.0,842.0,1.0,1038.0,1,1.0,0.0
1407,1407,-0.10058610125869916,-0.1,0.0,401.0,501.0,0.0,1198.0,1,0.0,0.0
1408,1408,0.21706561538595237,0.2,0.0,291.0,848.0,0.0,71.0,1,1.0,1.0
1409,1409,0.5769879914776536,0.6,1.0,357.0,513.0,1.0,130.0,1,0.0,1.0
1410,1410,-0.1841383593486533,-0.2,1.0,273.0,908.0,1.0,269.0,1,1.0,0.0
1411,1411,-0.8893267195454425,-0.9,1.0,371.0,939.0,1.0,160.0,1,1.0,0.0
1412,1412,-0.06029519617732515,-0.1,1.0,263.0,975.0,1.0,3292.0,1,1.0,0.0
1413,1413,-0.564067462908602,-0.6,1.0,448.0,778.0,1.0,374.0,1,1.0,0.0
1414,1414,-0.4179828932706859,-0.4,1.0,361.0,575.0,1.0,234.0,1,1.0,0.0
1415,1415,0.7773391477902759,0.8,1.0,404.0,937.0,1.0,129.0,1,0.0,1.0
1416,1416,-0.8085310660055806,-0.8,1.0,460.0,962.0,1.0,318.0,1,1.0,0.0
1417,1417,0.8660931755199849,0.9,0.0,395.0,611.0,0.0,54.0,1,1.0,1.0
1418,1418,-0.20797986351436837,-0.2,1.0,337.0,878.0,1.0,955.0,1,1.0,0.0
1419,1419,0.5443789905459461,0.5,1.0,290.0,541.0,0.0,-311.0,0,0.0,0.0
1420,1420,0.8596218498710467,0.9,1.0,267.0,972.0,1.0,141.0,1,0.0,1.0
1421,1421,-0.6828789240296896,-0.7,0.0,335.0,551.0,0.0,94.0,1,0.0,0.0
1422,1422,-0.46223991091918354,-0.5,0.0,400.0,992.0,0.0,228.0,1,0.0,0.0
1423,1423,-0.04275807124602282,-0.0,0.0,409.0,923.0,0.0,318.0,1,0.0,0.0
1424,1424,-0.7323299167211232,-0.7,0.0,266.0,999.0,0.0,125.0,1,0.0,0.0
1425,1425,0.3542480612350535,0.4,1.0,280.0,548.0,1.0,242.0,1,0.0,1.0
1426,1426,-0.319630069608677,-0.3,1.0,384.0,789.0,1.0,227.0,1,1.0,0.0
1427,1427,0.36424742893336404,0.4,0.0,371.0,998.0,1.0,-769.0,0,1.0,0.0
1428,1428,0.23605300163588228,0.2,1.0,489.0,628.0,1.0,573.0,1,0.0,1.0
1429,1429,0.20284628112895697,0.2,1.0,317.0,775.0,1.0,908.0,1,0.0,1.0
1430,1430,-0.849648606352813,-0.8,0.0,262.0,758.0,0.0,320.0,1,0.0,0.0
1431,1431,-0.009713640120184497,-0.0,0.0,309.0,612.0,0.0,319.0,1,0.0,0.0
1432,1432,-0.04988092210517647,-0.0,1.0,422.0,651.0,1.0,3927.0,1,1.0,0.0
1433,1433,0.3613525640689331,0.4,0.0,440.0,502.0,0.0,178.0,1,1.0,1.0
1434,1434,-0.5688370201242539,-0.6,0.0,336.0,971.0,0.0,143.0,1,0.0,0.0
1435,1435,0.3895424339028243,0.4,0.0,362.0,959.0,0.0,-171.0,1,1.0,1.0
1436,1436,-0.894234902790789,-0.9,1.0,491.0,560.0,1.0,169.0,1,1.0,0.0
1437,1437,0.7500909177011276,0.8,0.0,415.0,942.0,0.0,63.0,1,1.0,1.0
1438,1438,-0.4630275756379805,-0.5,0.0,444.0,910.0,0.0,166.0,1,0.0,0.0
1439,1439,0.34053735750826963,0.3,1.0,261.0,742.0,1.0,437.0,1,0.0,1.0
1440,1440,0.5172320020907127,0.5,0.0,260.0,771.0,0.0,59.0,1,1.0,1.0
1441,1441,0.11004065868013202,0.1,1.0,479.0,519.0,1.0,1232.0,1,0.0,1.0
1442,1442,-0.08293989599908247,-0.1,0.0,476.0,701.0,0.0,-97.0,1,0.0,0.0
1443,1443,0.6773903842398058,0.7,0.0,471.0,746.0,0.0,43.0,1,1.0,1.0
1444,1444,-0.32596699381555705,-0.3,1.0,368.0,981.0,1.0,461.0,1,1.0,0.0
1445,1445,0.5254995126729968,0.5,0.0,330.0,923.0,1.0,-253.0,0,1.0,0.0
1446,1446,-0.014289956924879776,-0.0,0.0,426.0,999.0,0.0,-215.0,1,0.0,0.0
1447,1447,-0.6407362266808434,-0.6,0.0,362.0,672.0,0.0,76.0,1,0.0,0.0
1448,1448,-0.8719264888566883,-0.9,0.0,260.0,898.0,0.0,262.0,1,0.0,0.0
1449,1449,0.8311108057942277,0.8,1.0,383.0,975.0,1.0,112.0,1,0.0,1.0
