,trial,coherence,coherence_bin,correct_side,target_onset,checker_onset,decision,decision_time,correct_decision,g0,gSlope
0,0,0.7023393504705571,0.7,0,252.0,987.0,0.0,261.0,1,0.08988813499363768,0.0
1,1,-0.44619487890951204,-0.4,1,392.0,612.0,1.0,266.0,1,0.12969354048357962,0.0
2,2,0.9204580837282261,0.9,0,372.0,768.0,0.0,140.0,1,0.5471423220722997,0.0
3,3,0.5519378863601909,0.6,0,422.0,633.0,0.0,255.0,1,0.44758263118699404,0.0
4,4,-0.35679249881181185,-0.4,1,276.0,762.0,1.0,252.0,1,0.7768717194903191,0.0
5,5,-0.6839981159260073,-0.7,1,478.0,624.0,1.0,268.0,1,0.48141238462128955,0.0
6,6,0.029533758347077388,0.0,0,279.0,938.0,0.0,1673.0,1,0.007225968137936745,0.0
7,7,-0.8312467399929044,-0.8,1,259.0,825.0,1.0,156.0,1,0.7330932456441751,0.0
8,8,-0.8286528447697215,-0.8,1,274.0,543.0,1.0,293.0,1,0.038175999015968465,0.0
9,9,0.5083152611540969,0.5,0,465.0,897.0,0.0,308.0,1,0.05096043453142074,0.0
10,10,0.6579717948342545,0.7,0,313.0,550.0,0.0,247.0,1,0.6829644962101992,0.0
11,11,0.926221700179243,0.9,0,271.0,892.0,0.0,187.0,1,0.13641146953771677,0.0
12,12,-0.3102673536821674,-0.3,1,428.0,774.0,1.0,318.0,1,0.47382025182097665,0.0
13,13,0.5785227524358534,0.6,0,262.0,721.0,0.0,227.0,1,0.7059528399963991,0.0
14,14,-0.22806920070515901,-0.2,1,458.0,713.0,1.0,429.0,1,0.32421203761266393,0.0
15,15,-0.9310755089128646,-0.9,1,254.0,757.0,1.0,329.0,1,0.16323313487183133,0.0
16,16,0.36993993749494725,0.4,0,439.0,509.0,0.0,312.0,1,0.8783907431166313,0.0
17,17,-0.6489771895395426,-0.6,1,258.0,971.0,1.0,151.0,1,0.7120277170480609,0.0
18,18,0.43182941619533755,0.4,0,498.0,952.0,0.0,340.0,1,0.6870148041168704,0.0
19,19,0.04134863507015929,0.0,0,422.0,698.0,0.0,1120.0,1,0.4668860953072258,0.0
20,20,0.9469585927726807,0.9,0,490.0,680.0,0.0,230.0,1,0.32028336456278483,0.0
21,21,0.9797405314704803,1.0,0,468.0,782.0,0.0,190.0,1,0.18714759288882388,0.0
22,22,-0.7406361525244485,-0.7,1,451.0,967.0,1.0,222.0,1,0.2728541476817954,0.0
23,23,0.5916100113910234,0.6,0,343.0,884.0,0.0,523.0,1,0.09981328597142647,0.0
24,24,0.5809624358690169,0.6,0,296.0,772.0,0.0,232.0,1,0.45255584806830473,0.0
25,25,0.36235447007487287,0.4,0,323.0,582.0,0.0,335.0,1,0.5339025536229054,0.0
26,26,-0.5448663218714405,-0.5,1,428.0,592.0,1.0,320.0,1,0.5462262214519168,0.0
27,27,0.3397352756206604,0.3,0,279.0,692.0,0.0,359.0,1,0.2974135077599005,0.0
28,28,-0.35081977459532654,-0.4,1,432.0,622.0,1.0,256.0,1,0.4694423530116494,0.0
29,29,-0.022888250417634426,-0.0,1,259.0,909.0,1.0,672.0,1,0.2445824685250585,0.0
30,30,0.4154865388000948,0.4,0,459.0,949.0,0.0,342.0,1,0.11625169296809423,0.0
31,31,0.22591483397873446,0.2,0,293.0,964.0,1.0,233.0,0,0.850758480503385,0.0
32,32,-0.511939286209554,-0.5,1,494.0,963.0,1.0,293.0,1,0.7177792861866376,0.0
33,33,-0.97279476067506,-1.0,1,498.0,514.0,1.0,198.0,1,0.5292254412874091,0.0
34,34,-0.8850370139825796,-0.9,1,462.0,703.0,1.0,285.0,1,0.3662796547523627,0.0
35,35,-0.435226693705544,-0.4,1,280.0,931.0,1.0,209.0,1,0.4134716271955349,0.0
36,36,-0.5209102225585878,-0.5,1,363.0,995.0,1.0,432.0,1,0.4141644338708068,0.0
37,37,0.8026625293432723,0.8,0,399.0,547.0,0.0,224.0,1,0.7948942479355434,0.0
38,38,-0.3405767441280292,-0.3,1,380.0,843.0,1.0,537.0,1,0.09308270065566704,0.0
39,39,0.41714466163320485,0.4,0,287.0,969.0,0.0,324.0,1,0.34763071561907366,0.0
40,40,0.8381310968590212,0.8,0,427.0,945.0,0.0,238.0,1,0.4352252909550258,0.0
41,41,-0.3113734912457564,-0.3,1,409.0,617.0,1.0,314.0,1,0.9849853702295384,0.0
42,42,-0.19978021192352258,-0.2,1,312.0,691.0,1.0,207.0,1,0.9615989873467801,0.0
43,43,-0.7962600723460582,-0.8,1,476.0,775.0,1.0,399.0,1,0.12167920517242059,0.0
44,44,-0.9604309527578732,-1.0,1,292.0,612.0,1.0,196.0,1,0.7451689686393258,0.0
45,45,-0.40165192157471163,-0.4,1,342.0,966.0,1.0,502.0,1,0.5787815149732487,0.0
46,46,-0.5818190147230986,-0.6,1,296.0,533.0,1.0,251.0,1,0.31960568491087715,0.0
47,47,-0.326290963290784,-0.3,1,347.0,631.0,1.0,512.0,1,0.46493171250064846,0.0
48,48,0.14193469807873038,0.1,0,300.0,744.0,0.0,576.0,1,0.8544782628618256,0.0
49,49,-0.07756915474880466,-0.1,1,302.0,922.0,1.0,256.0,1,0.8516590346278377,0.0
50,50,0.3109473409629857,0.3,0,459.0,670.0,0.0,291.0,1,0.039262846462944534,0.0
51,51,0.1753265264439372,0.2,0,309.0,606.0,0.0,565.0,1,0.1186379175823955,0.0
52,52,-0.5115589183506875,-0.5,1,389.0,825.0,1.0,266.0,1,0.5364263249190848,0.0
53,53,0.7655239172474841,0.8,0,341.0,549.0,0.0,230.0,1,0.2830894006265724,0.0
54,54,-0.9687862805025471,-1.0,1,268.0,974.0,1.0,228.0,1,0.06446187409753401,0.0
55,55,0.6396866616910755,0.6,0,254.0,713.0,0.0,353.0,1,0.33806050945150357,0.0
56,56,-0.7913980673070409,-0.8,1,277.0,911.0,1.0,212.0,1,0.22088238293717477,0.0
57,57,0.6880650836600526,0.7,0,350.0,581.0,0.0,349.0,1,0.38683162434370943,0.0
58,58,0.8926431453783998,0.9,0,257.0,558.0,0.0,205.0,1,0.4329357712101023,0.0
59,59,0.29618384022161215,0.3,0,352.0,924.0,0.0,384.0,1,0.1742975420194195,0.0
60,60,0.17116178816162564,0.2,0,450.0,501.0,0.0,689.0,1,0.06526502306464199,0.0
61,61,0.0054317514554018675,0.0,0,490.0,961.0,1.0,339.0,0,0.46991909371874363,0.0
62,62,0.39046132987636484,0.4,0,326.0,801.0,0.0,273.0,1,0.5150318596813587,0.0
63,63,0.9125624119713238,0.9,0,368.0,850.0,0.0,122.0,1,0.6670115397953895,0.0
64,64,0.6905765129913868,0.7,0,393.0,826.0,0.0,231.0,1,0.972539154238886,0.0
65,65,-0.9808781701144718,-1.0,1,463.0,514.0,1.0,203.0,1,0.16535534996593548,0.0
66,66,-0.1389697446488456,-0.1,1,299.0,592.0,1.0,239.0,1,0.8240323948292742,0.0
67,67,-0.7011570663121931,-0.7,1,313.0,927.0,1.0,350.0,1,0.2393077900145163,0.0
68,68,0.6356823674752115,0.6,0,255.0,565.0,0.0,190.0,1,0.03306632672991783,0.0
69,69,-0.1867902058546398,-0.2,1,354.0,857.0,1.0,269.0,1,0.5836455665956076,0.0
70,70,-0.4045759154286097,-0.4,1,399.0,546.0,1.0,495.0,1,0.4068653194592282,0.0
71,71,-0.31645159681455093,-0.3,1,463.0,560.0,1.0,397.0,1,0.6896186981256179,0.0
72,72,-0.008376445040880975,-0.0,1,417.0,739.0,0.0,914.0,0,0.5659350764558564,0.0
73,73,-0.1667250399105631,-0.2,1,465.0,528.0,0.0,447.0,0,0.6095249310568058,0.0
74,74,0.5938599205595991,0.6,0,424.0,897.0,0.0,179.0,1,0.9666903352761761,0.0
75,75,-0.9904287511215633,-1.0,1,335.0,619.0,1.0,346.0,1,0.31903698027506355,0.0
76,76,-0.5958326567352108,-0.6,1,428.0,990.0,1.0,232.0,1,0.8091926371744327,0.0
77,77,0.5644691073532186,0.6,0,306.0,951.0,0.0,193.0,1,0.7192292262136428,0.0
78,78,0.7441341431517519,0.7,0,497.0,609.0,0.0,244.0,1,0.8304132806255176,0.0
79,79,0.6694680945799365,0.7,0,370.0,839.0,0.0,251.0,1,0.597354568211475,0.0
80,80,0.6235062677285363,0.6,0,332.0,538.0,0.0,220.0,1,0.4208604494917939,0.0
81,81,-0.3293631768219891,-0.3,1,438.0,757.0,1.0,325.0,1,0.9738964197959964,0.0
82,82,0.03316225900166492,0.0,0,288.0,617.0,0.0,255.0,1,0.4928990748079576,0.0
83,83,-0.8834841523286676,-0.9,1,256.0,752.0,1.0,222.0,1,0.42469417262773235,0.0
84,84,-0.21118707890860522,-0.2,1,361.0,838.0,1.0,401.0,1,0.6275516457973331,0.0
85,85,-0.698735565311366,-0.7,1,467.0,798.0,1.0,245.0,1,0.19317118440047965,0.0
86,86,0.22889672580010134,0.2,0,278.0,739.0,0.0,433.0,1,0.48357324431970905,0.0
87,87,-0.11092616538574718,-0.1,1,252.0,752.0,1.0,1266.0,1,0.35236901413087196,0.0
88,88,0.9621049055767743,1.0,0,280.0,930.0,0.0,190.0,1,0.24851987078726623,0.0
89,89,0.19856414121485266,0.2,0,308.0,715.0,0.0,207.0,1,0.9761787776612273,0.0
90,90,-0.5377200062710965,-0.5,1,280.0,870.0,1.0,430.0,1,0.23831811874156528,0.0
91,91,-0.3704672529495643,-0.4,1,408.0,869.0,1.0,283.0,1,0.9631330801951217,0.0
92,92,-0.6372957441050933,-0.6,1,417.0,721.0,1.0,222.0,1,0.6960316804265869,0.0
93,93,0.06964980317505831,0.1,0,476.0,567.0,0.0,307.0,1,0.6116852106960708,0.0
94,94,0.7097982810932999,0.7,0,422.0,600.0,0.0,408.0,1,0.42781926630269984,0.0
95,95,-0.4496898896650725,-0.4,1,300.0,697.0,1.0,303.0,1,0.4522204395147179,0.0
96,96,0.9214918250020829,0.9,0,361.0,807.0,0.0,192.0,1,0.2572883918835661,0.0
97,97,-0.19888347393267258,-0.2,1,279.0,897.0,1.0,204.0,1,0.13020361062983354,0.0
98,98,-0.6138232547738205,-0.6,1,432.0,667.0,1.0,561.0,1,0.06034944472643655,0.0
99,99,-0.3588367069940217,-0.4,1,286.0,834.0,1.0,460.0,1,0.5064275321802146,0.0
100,100,-0.8618251690828951,-0.9,1,410.0,623.0,1.0,107.0,1,0.5257092190915353,0.0
101,101,0.13239455194145378,0.1,0,327.0,797.0,0.0,476.0,1,0.2669540705029164,0.0
102,102,-0.10899629369507902,-0.1,1,358.0,921.0,1.0,241.0,1,0.5278111865023097,0.0
103,103,0.24835315826927884,0.2,0,413.0,723.0,0.0,434.0,1,0.7254859712605319,0.0
104,104,-0.043482929872991294,-0.0,1,285.0,927.0,1.0,478.0,1,0.738221944871691,0.0
105,105,0.03767352197268914,0.0,0,404.0,913.0,0.0,493.0,1,0.5340392042969304,0.0
106,106,-0.4745634638805598,-0.5,1,414.0,548.0,1.0,218.0,1,0.580227669685865,0.0
107,107,0.2199242613483121,0.2,0,276.0,635.0,0.0,369.0,1,0.23280698451336312,0.0
108,108,0.7147325647106715,0.7,0,250.0,504.0,0.0,176.0,1,0.7526613853070426,0.0
109,109,-0.33217410619446164,-0.3,1,312.0,760.0,1.0,288.0,1,0.7592139532130744,0.0
110,110,0.7710095704096707,0.8,0,366.0,528.0,0.0,186.0,1,0.7114028856418886,0.0
111,111,0.697137361668408,0.7,0,376.0,634.0,0.0,200.0,1,0.6645155309646901,0.0
112,112,0.7716418996354397,0.8,0,257.0,601.0,0.0,212.0,1,0.2769012499289272,0.0
113,113,-0.4336052589168098,-0.4,1,418.0,858.0,1.0,234.0,1,0.4384388421137838,0.0
114,114,0.17840925107527394,0.2,0,275.0,504.0,0.0,411.0,1,0.18191400646284117,0.0
115,115,-0.03509565128701553,-0.0,1,454.0,563.0,1.0,213.0,1,0.6887984203763573,0.0
116,116,-0.02672676567087584,-0.0,1,281.0,979.0,1.0,1590.0,1,0.8546203228533469,0.0
117,117,-0.235638564507465,-0.2,1,421.0,724.0,1.0,265.0,1,0.8113050904950285,0.0
118,118,0.9694343994290733,1.0,0,298.0,857.0,0.0,375.0,1,0.10012381331415887,0.0
119,119,-0.5226967143544854,-0.5,1,373.0,658.0,1.0,399.0,1,0.588725228999168,0.0
120,120,-0.9884183958996311,-1.0,1,397.0,911.0,1.0,192.0,1,0.6491952106256451,0.0
121,121,0.9689509631662359,1.0,0,360.0,687.0,0.0,273.0,1,0.48565741949510177,0.0
122,122,0.46913751515877644,0.5,0,275.0,768.0,0.0,417.0,1,0.09195356054487014,0.0
123,123,0.7728273780395223,0.8,0,466.0,586.0,0.0,268.0,1,0.30116229134260053,0.0
124,124,-0.7880777339074729,-0.8,1,446.0,534.0,1.0,290.0,1,0.2182564300894242,0.0
125,125,0.19557091442769337,0.2,0,448.0,534.0,0.0,438.0,1,0.05504083703810059,0.0
126,126,-0.47972594104971855,-0.5,1,472.0,841.0,1.0,247.0,1,0.8140267759895838,0.0
127,127,-0.966818347091972,-1.0,1,343.0,694.0,1.0,283.0,1,0.2578316177257042,0.0
128,128,-0.5595486201967168,-0.6,1,391.0,678.0,1.0,341.0,1,0.14603126170808967,0.0
129,129,-0.4678417098339529,-0.5,1,280.0,970.0,1.0,430.0,1,0.3658993764727261,0.0
130,130,0.45585695822299654,0.5,0,341.0,542.0,0.0,247.0,1,0.22279623417408967,0.0
131,131,0.2869209146620191,0.3,0,457.0,530.0,0.0,403.0,1,0.41508524674637215,0.0
132,132,0.7541028449764862,0.8,0,396.0,543.0,0.0,191.0,1,0.9586050008263323,0.0
133,133,0.6249886092568437,0.6,0,458.0,580.0,0.0,272.0,1,0.2945530449597662,0.0
134,134,-0.639325566919362,-0.6,1,276.0,773.0,1.0,241.0,1,0.40523161734622803,0.0
135,135,-0.36756419161231113,-0.4,1,371.0,707.0,1.0,212.0,1,0.9586681651621347,0.0
136,136,-0.4243425719524585,-0.4,1,353.0,638.0,1.0,449.0,1,0.027065126803848427,0.0
137,137,0.682426293206813,0.7,0,397.0,714.0,0.0,259.0,1,0.2551636446831467,0.0
138,138,0.5633513887148978,0.6,0,314.0,563.0,0.0,253.0,1,0.13497096399405828,0.0
139,139,0.0979134241044679,0.1,0,291.0,622.0,0.0,417.0,1,0.570642221120425,0.0
140,140,-0.5730387009871247,-0.6,1,321.0,846.0,1.0,333.0,1,0.11895413112210695,0.0
141,141,-0.8252774495558333,-0.8,1,269.0,604.0,1.0,307.0,1,0.17674758790623546,0.0
142,142,0.15041754426186849,0.2,0,421.0,951.0,0.0,388.0,1,0.6007159379050486,0.0
143,143,0.08910096360814412,0.1,0,312.0,529.0,0.0,259.0,1,0.6041051031348773,0.0
144,144,-0.000794584910187357,-0.0,1,346.0,535.0,1.0,1419.0,1,0.044384706507281546,0.0
145,145,-0.37395426188776804,-0.4,1,427.0,655.0,1.0,628.0,1,0.09895652636446128,0.0
146,146,0.5459880220034086,0.5,0,360.0,582.0,0.0,288.0,1,0.979015549573804,0.0
147,147,0.6471346568358012,0.6,0,431.0,636.0,0.0,183.0,1,0.5638959173060649,0.0
148,148,0.6171569924334177,0.6,0,499.0,626.0,0.0,185.0,1,0.602988547860667,0.0
149,149,-0.6531392388125818,-0.7,1,465.0,917.0,1.0,338.0,1,0.04798907898915761,0.0
150,150,-0.3306622931991501,-0.3,1,376.0,886.0,1.0,208.0,1,0.8330801954350452,0.0
151,151,-0.8290070303411674,-0.8,1,367.0,723.0,1.0,300.0,1,0.7015453036279957,0.0
152,152,-0.998651690626462,-1.0,1,354.0,623.0,1.0,333.0,1,0.035905087778934974,0.0
153,153,-0.487991540011244,-0.5,1,461.0,989.0,1.0,360.0,1,0.4080035514615701,0.0
154,154,0.9324960798684601,0.9,0,471.0,960.0,0.0,189.0,1,0.35553461157354405,0.0
155,155,0.314359867180972,0.3,0,370.0,566.0,0.0,334.0,1,0.7526566603283319,0.0
156,156,-0.6650029535048934,-0.7,1,250.0,929.0,1.0,161.0,1,0.8783293700183953,0.0
157,157,0.6729156620897776,0.7,0,406.0,689.0,0.0,135.0,1,0.8936020578114774,0.0
158,158,-0.39732138225145786,-0.4,1,353.0,508.0,1.0,279.0,1,0.8892345985654715,0.0
159,159,0.3753157017837516,0.4,0,443.0,895.0,0.0,292.0,1,0.3202797836004795,0.0
160,160,-0.38774927976791496,-0.4,1,444.0,747.0,1.0,259.0,1,0.822867402392464,0.0
161,161,0.9786639029073214,1.0,0,360.0,892.0,0.0,168.0,1,0.5447520337409334,0.0
162,162,0.71289041453348,0.7,0,463.0,558.0,0.0,319.0,1,0.39123762559897246,0.0
163,163,-0.5637409018212785,-0.6,1,456.0,681.0,1.0,283.0,1,0.7178329833039857,0.0
164,164,-0.25365607435803716,-0.3,1,322.0,606.0,1.0,332.0,1,0.7722872656461223,0.0
165,165,0.7334423705772022,0.7,0,283.0,640.0,0.0,147.0,1,0.5999617117619729,0.0
166,166,-0.9811314862241016,-1.0,1,422.0,735.0,1.0,193.0,1,0.676553559055458,0.0
167,167,0.80738225719555,0.8,0,298.0,602.0,0.0,300.0,1,0.13590723429766305,0.0
168,168,0.2746162144190831,0.3,0,451.0,574.0,0.0,245.0,1,0.5300856690877725,0.0
169,169,-0.8618712882642436,-0.9,1,409.0,805.0,1.0,336.0,1,0.3998971538398738,0.0
170,170,-0.025041399472240267,-0.0,1,407.0,543.0,1.0,730.0,1,0.05396628854555374,0.0
171,171,0.4382259880674153,0.4,0,386.0,990.0,0.0,284.0,1,0.5945898282646597,0.0
172,172,0.540310949044855,0.5,0,400.0,527.0,0.0,263.0,1,0.9916978709279289,0.0
173,173,-0.16370536896842247,-0.2,1,339.0,973.0,0.0,238.0,0,0.6375567518093538,0.0
174,174,-0.7285779014331766,-0.7,1,415.0,925.0,1.0,240.0,1,0.9220232883552736,0.0
175,175,-0.19887630729220684,-0.2,1,496.0,825.0,1.0,259.0,1,0.9866611054578758,0.0
176,176,-0.23015986241643227,-0.2,1,488.0,587.0,1.0,325.0,1,0.2860064839133062,0.0
177,177,-0.6737497058863631,-0.7,1,301.0,840.0,1.0,179.0,1,0.8316735736633082,0.0
178,178,-0.9855215813835572,-1.0,1,268.0,919.0,1.0,123.0,1,0.745414826403728,0.0
179,179,0.9509003343946216,1.0,0,433.0,796.0,0.0,181.0,1,0.20673601295349864,0.0
180,180,0.7085206974279736,0.7,0,308.0,779.0,0.0,303.0,1,0.5007919613978699,0.0
181,181,-0.410317241579661,-0.4,1,274.0,535.0,1.0,261.0,1,0.6783187071716014,0.0
182,182,0.6356580938428491,0.6,0,371.0,621.0,0.0,438.0,1,0.30194590135153887,0.0
183,183,0.27104177868203116,0.3,0,322.0,869.0,0.0,499.0,1,0.2746984317613921,0.0
184,184,0.8653699820756511,0.9,0,336.0,638.0,0.0,166.0,1,0.8607993192011556,0.0
185,185,0.06647893478290956,0.1,0,449.0,619.0,1.0,162.0,0,0.8507248696888079,0.0
186,186,0.26251113202356446,0.3,0,431.0,700.0,0.0,169.0,1,0.344958555781428,0.0
187,187,-0.026479113819016575,-0.0,1,400.0,946.0,0.0,704.0,0,0.1744159942800062,0.0
188,188,-0.45590613331047725,-0.5,1,310.0,769.0,1.0,501.0,1,0.07750407495599898,0.0
189,189,0.2532351535000794,0.3,0,338.0,718.0,0.0,374.0,1,0.28130777667444296,0.0
190,190,0.44972766236966155,0.4,0,415.0,782.0,0.0,383.0,1,0.7521689937331707,0.0
191,191,-0.395917771981686,-0.4,1,373.0,916.0,1.0,401.0,1,0.6259697571907756,0.0
192,192,-0.49779353245557245,-0.5,1,387.0,546.0,1.0,187.0,1,0.9644817803389126,0.0
193,193,0.5592516927361622,0.6,0,310.0,823.0,0.0,317.0,1,0.08369756036375509,0.0
194,194,-0.355469914797534,-0.4,1,485.0,795.0,1.0,590.0,1,0.1466795117105848,0.0
195,195,0.09892167113377748,0.1,0,447.0,785.0,1.0,748.0,0,0.8710579882894318,0.0
196,196,-0.7515391400951639,-0.8,1,451.0,759.0,1.0,200.0,1,0.7136712444977379,0.0
197,197,0.0608403952892278,0.1,0,441.0,531.0,0.0,618.0,1,0.4631340009218109,0.0
198,198,-0.679776187530454,-0.7,1,358.0,545.0,1.0,207.0,1,0.9529687244892552,0.0
199,199,0.3454913235987118,0.3,0,298.0,511.0,0.0,171.0,1,0.7977436747937694,0.0
200,200,-0.9154984126154351,-0.9,1,325.0,669.0,1.0,156.0,1,0.6448744111888295,0.0
201,201,0.6535159312341949,0.7,0,292.0,865.0,0.0,193.0,1,0.7455281303719038,0.0
202,202,-0.06903447471073143,-0.1,1,494.0,773.0,1.0,313.0,1,0.7584331219176936,0.0
203,203,-0.43654581575324936,-0.4,1,470.0,701.0,1.0,269.0,1,0.6515487187550628,0.0
204,204,-0.3975521827846624,-0.4,1,337.0,525.0,1.0,418.0,1,0.2021895271343841,0.0
205,205,-0.17993512929788014,-0.2,1,487.0,775.0,1.0,488.0,1,0.9552140407494752,0.0
206,206,0.9061677035395954,0.9,0,376.0,743.0,0.0,391.0,1,0.33107655047642703,0.0
207,207,-0.6950220929566577,-0.7,1,279.0,973.0,1.0,178.0,1,0.8472883972223038,0.0
208,208,-0.7787190691688235,-0.8,1,342.0,640.0,1.0,298.0,1,0.12672804816745054,0.0
209,209,0.9128641760268559,0.9,0,471.0,909.0,0.0,160.0,1,0.6531555611797287,0.0
210,210,-0.04963755030009853,-0.0,1,411.0,897.0,1.0,192.0,1,0.62491836496273,0.0
211,211,0.27982871374838325,0.3,0,302.0,954.0,0.0,304.0,1,0.3591825151074697,0.0
212,212,-0.875049740209288,-0.9,1,350.0,974.0,1.0,196.0,1,0.871060834573717,0.0
213,213,-0.601312468194251,-0.6,1,343.0,827.0,1.0,310.0,1,0.4521559351532569,0.0
214,214,-0.752044711800357,-0.8,1,391.0,766.0,1.0,223.0,1,0.7379573010704656,0.0
215,215,0.06007113808859543,0.1,0,273.0,753.0,0.0,814.0,1,0.04077314586617187,0.0
216,216,-0.2887369690071837,-0.3,1,381.0,792.0,1.0,227.0,1,0.537339324085885,0.0
217,217,0.6783716090719365,0.7,0,494.0,949.0,0.0,297.0,1,0.33139680113256087,0.0
218,218,-0.5175318574976544,-0.5,1,466.0,909.0,1.0,415.0,1,0.6824883782084382,0.0
219,219,-0.9234303906009762,-0.9,1,402.0,707.0,1.0,141.0,1,0.7364889296271502,0.0
220,220,0.6458315280007223,0.6,0,421.0,630.0,0.0,169.0,1,0.18398846159692261,0.0
221,221,0.9771597398565524,1.0,0,456.0,505.0,0.0,129.0,1,0.9616946418426363,0.0
222,222,-0.1607657857573117,-0.2,1,493.0,561.0,1.0,256.0,1,0.46150107953668307,0.0
223,223,-0.9253502187411564,-0.9,1,352.0,670.0,1.0,188.0,1,0.3313862362705916,0.0
224,224,0.2037762537765535,0.2,0,271.0,809.0,0.0,770.0,1,0.2685150517629711,0.0
225,225,-0.3185439853034784,-0.3,1,491.0,964.0,1.0,625.0,1,0.11169033042105059,0.0
226,226,-0.8672069198165255,-0.9,1,335.0,686.0,1.0,259.0,1,0.30132009100846036,0.0
227,227,0.984152667906149,1.0,0,315.0,662.0,0.0,233.0,1,0.29240921551774957,0.0
228,228,-0.839133713483295,-0.8,1,433.0,767.0,1.0,200.0,1,0.7595996072040112,0.0
229,229,-0.15872571726231,-0.2,1,302.0,756.0,1.0,252.0,1,0.8122941329795758,0.0
230,230,0.6683537499848036,0.7,0,348.0,761.0,0.0,201.0,1,0.8620003077190588,0.0
231,231,-0.9016955862757854,-0.9,1,260.0,984.0,1.0,186.0,1,0.6549014170785764,0.0
232,232,0.4595137481402094,0.5,0,378.0,800.0,0.0,332.0,1,0.8915663140091751,0.0
233,233,-0.6803611656179724,-0.7,1,496.0,595.0,1.0,299.0,1,0.017999992299642886,0.0
234,234,-0.6820557453609672,-0.7,1,261.0,720.0,1.0,299.0,1,0.05731842935405207,0.0
235,235,-0.12421198627767227,-0.1,1,444.0,934.0,1.0,442.0,1,0.6861723527168359,0.0
236,236,-0.4716951353666696,-0.5,1,298.0,741.0,1.0,371.0,1,0.7884992490099415,0.0
237,237,0.2522309268737548,0.3,0,481.0,960.0,0.0,469.0,1,0.37170358247037705,0.0
238,238,0.23066851629277418,0.2,0,468.0,706.0,0.0,416.0,1,0.9711154812024315,0.0
239,239,-0.3082928176556765,-0.3,1,477.0,693.0,1.0,390.0,1,0.04835893458654905,0.0
240,240,-0.48655339063821645,-0.5,1,269.0,869.0,1.0,262.0,1,0.15546120862577006,0.0
241,241,-0.8292739454362765,-0.8,1,433.0,689.0,1.0,488.0,1,0.13053527584973323,0.0
242,242,-0.10255198511124841,-0.1,1,431.0,978.0,1.0,1551.0,1,0.041604098315534355,0.0
243,243,0.6137332526805377,0.6,0,380.0,834.0,0.0,226.0,1,0.9390762775274499,0.0
244,244,-0.9452785497794807,-0.9,1,404.0,704.0,1.0,222.0,1,0.15778125853007796,0.0
245,245,-0.757953078802732,-0.8,1,276.0,623.0,1.0,361.0,1,0.11292377695389177,0.0
246,246,-0.5699326472183377,-0.6,1,313.0,580.0,1.0,297.0,1,0.31860106303531355,0.0
247,247,-0.5295976340913378,-0.5,1,429.0,998.0,1.0,223.0,1,0.8359909257180497,0.0
248,248,0.4959815281320856,0.5,0,301.0,678.0,0.0,161.0,1,0.2508245867569915,0.0
249,249,0.1316776410422582,0.1,0,303.0,521.0,0.0,796.0,1,0.40402150843733164,0.0
250,250,-0.9035896551950962,-0.9,1,449.0,705.0,1.0,196.0,1,0.49173128645500686,0.0
251,251,0.3634513567989248,0.4,0,424.0,935.0,0.0,681.0,1,0.23877001014194243,0.0
252,252,0.6190458998530732,0.6,0,295.0,625.0,0.0,320.0,1,0.3456420784038332,0.0
253,253,0.6223296450873168,0.6,0,397.0,645.0,0.0,208.0,1,0.3401779368017157,0.0
254,254,-0.8461460555631029,-0.8,1,399.0,946.0,1.0,415.0,1,0.09969075750287659,0.0
255,255,-0.3291434190413023,-0.3,1,308.0,962.0,1.0,380.0,1,0.19918407916636072,0.0
256,256,-0.6546070256460046,-0.7,1,479.0,969.0,1.0,312.0,1,0.309102993367506,0.0
257,257,-0.06283168231939218,-0.1,1,349.0,943.0,1.0,1158.0,1,0.06076755279539603,0.0
258,258,0.7565358962945794,0.8,0,342.0,899.0,0.0,219.0,1,0.5500349876688898,0.0
259,259,-0.7844960447644744,-0.8,1,470.0,655.0,1.0,315.0,1,0.3661103202311258,0.0
260,260,0.4154113154153163,0.4,0,395.0,904.0,0.0,291.0,1,0.05020277374381832,0.0
261,261,-0.5647294361096589,-0.6,1,463.0,506.0,1.0,201.0,1,0.9563450888701008,0.0
262,262,0.6189601241574825,0.6,0,459.0,614.0,0.0,397.0,1,0.8593977775535488,0.0
263,263,-0.7385555116086071,-0.7,1,481.0,554.0,1.0,215.0,1,0.6190910122792707,0.0
264,264,0.6330302105510661,0.6,0,389.0,763.0,0.0,308.0,1,0.376168722315283,0.0
265,265,-0.9761274246195577,-1.0,1,379.0,771.0,1.0,200.0,1,0.5569613622981566,0.0
266,266,-0.771282812193933,-0.8,1,348.0,584.0,1.0,208.0,1,0.9630562438456596,0.0
267,267,0.34494372390444283,0.3,0,260.0,747.0,0.0,153.0,1,0.7124006763623236,0.0
268,268,-0.20102081434664099,-0.2,1,364.0,728.0,1.0,1278.0,1,0.12409377916935604,0.0
269,269,0.8778167411720872,0.9,0,442.0,731.0,0.0,337.0,1,0.18190464802635498,0.0
270,270,0.23282603125579637,0.2,0,433.0,778.0,0.0,1739.0,1,0.16417642429965484,0.0
271,271,0.0587256742624247,0.1,0,363.0,529.0,0.0,428.0,1,0.8046923341593554,0.0
272,272,-0.6292190726120572,-0.6,1,336.0,707.0,1.0,207.0,1,0.9804042024289638,0.0
273,273,-0.7399234625440818,-0.7,1,363.0,841.0,1.0,256.0,1,0.4913570083168758,0.0
274,274,-0.43374343019430417,-0.4,1,415.0,550.0,1.0,255.0,1,0.40349509391608374,0.0
275,275,0.6070358768124848,0.6,0,378.0,514.0,0.0,248.0,1,0.7996073418854348,0.0
276,276,-0.27861774108920123,-0.3,1,310.0,689.0,1.0,211.0,1,0.9906957459809832,0.0
277,277,-0.22880654606852913,-0.2,1,469.0,979.0,1.0,342.0,1,0.5960611832210763,0.0
278,278,0.9043943295484358,0.9,0,305.0,919.0,0.0,146.0,1,0.8051537866054654,0.0
279,279,0.3630120453029113,0.4,0,342.0,533.0,0.0,245.0,1,0.6813062078343236,0.0
280,280,0.7225788718465922,0.7,0,287.0,594.0,0.0,239.0,1,0.9110804104096495,0.0
281,281,-0.13363080539812056,-0.1,1,290.0,957.0,1.0,303.0,1,0.12319944435195329,0.0
282,282,0.03822149756064874,0.0,0,492.0,743.0,0.0,1715.0,1,0.008601657822293718,0.0
283,283,-0.018880246421834723,-0.0,1,475.0,908.0,1.0,587.0,1,0.36492880296309127,0.0
284,284,0.5051849302361273,0.5,0,478.0,819.0,0.0,363.0,1,0.27365392295771673,0.0
285,285,-0.844726150258003,-0.8,1,478.0,762.0,1.0,250.0,1,0.5066290327692823,0.0
286,286,0.9502060970917561,1.0,0,327.0,687.0,0.0,266.0,1,0.2605872328386052,0.0
287,287,0.895344904325382,0.9,0,310.0,934.0,0.0,286.0,1,0.22909832372188899,0.0
288,288,0.9063826304765976,0.9,0,435.0,662.0,0.0,243.0,1,0.746378359149241,0.0
289,289,0.6341573634498681,0.6,0,305.0,580.0,0.0,125.0,1,0.4303616341860472,0.0
290,290,0.4539534196593782,0.5,0,271.0,697.0,0.0,242.0,1,0.7119412437560002,0.0
291,291,0.4957007993258302,0.5,0,480.0,923.0,0.0,427.0,1,0.6019241177303446,0.0
292,292,-0.20511973440591458,-0.2,1,433.0,787.0,0.0,1100.0,0,0.9897999613385157,0.0
293,293,-0.015571085672123619,-0.0,1,412.0,805.0,1.0,1503.0,1,0.03193810438197575,0.0
294,294,-0.7679109743562824,-0.8,1,384.0,528.0,1.0,338.0,1,0.05435125353888692,0.0
295,295,-0.46796888083331045,-0.5,1,462.0,979.0,1.0,249.0,1,0.3837021220029363,0.0
296,296,0.8471705207637577,0.8,0,312.0,665.0,0.0,243.0,1,0.7015767211108445,0.0
297,297,-0.6826097335812809,-0.7,1,468.0,794.0,1.0,228.0,1,0.5573078586515783,0.0
298,298,-0.9144434828914096,-0.9,1,424.0,572.0,1.0,194.0,1,0.5999844710993324,0.0
299,299,-0.9595456595608538,-1.0,1,453.0,924.0,1.0,183.0,1,0.05164277354456914,0.0
300,300,-0.27466878284339735,-0.3,1,437.0,508.0,1.0,305.0,1,0.4323206772566356,0.0
301,301,-0.1071165639871714,-0.1,1,390.0,943.0,1.0,387.0,1,0.31654070527392497,0.0
302,302,0.6342618734738428,0.6,0,420.0,545.0,0.0,355.0,1,0.31691269684951384,0.0
303,303,-0.334412318989205,-0.3,1,348.0,502.0,1.0,300.0,1,0.03203900710045282,0.0
304,304,0.040698198754701265,0.0,0,499.0,595.0,1.0,476.0,0,0.029498533092573997,0.0
305,305,-0.8530270505002946,-0.9,1,297.0,866.0,1.0,267.0,1,0.2026985150264634,0.0
306,306,-0.9609388466084106,-1.0,1,375.0,807.0,1.0,238.0,1,0.6894400846782255,0.0
307,307,0.22530518939810307,0.2,0,402.0,833.0,0.0,525.0,1,0.9602068090696151,0.0
308,308,-0.6295208336620652,-0.6,1,267.0,579.0,1.0,134.0,1,0.9421944974027942,0.0
309,309,-0.43475790845184137,-0.4,1,267.0,854.0,1.0,219.0,1,0.7782671281005797,0.0
310,310,0.8596489721894476,0.9,0,484.0,585.0,0.0,311.0,1,0.07044312508858797,0.0
311,311,0.9132700688081459,0.9,0,413.0,864.0,0.0,293.0,1,0.3028720626061535,0.0
312,312,-0.7472392882950845,-0.7,1,336.0,556.0,1.0,358.0,1,0.4011666296017442,0.0
313,313,-0.39567685515319817,-0.4,1,436.0,548.0,1.0,786.0,1,0.12567831762732173,0.0
314,314,0.24562615453394998,0.2,0,274.0,980.0,0.0,446.0,1,0.3848477986721449,0.0
315,315,-0.5306712315403626,-0.5,1,301.0,604.0,1.0,285.0,1,0.3115404339444868,0.0
316,316,-0.5121134292798333,-0.5,1,401.0,859.0,1.0,520.0,1,0.12823059066932874,0.0
317,317,0.26718217192845883,0.3,0,460.0,717.0,0.0,803.0,1,0.13662393314889953,0.0
318,318,0.557407111007022,0.6,0,332.0,886.0,0.0,262.0,1,0.3420055786828463,0.0
319,319,-0.6513285063609826,-0.7,1,499.0,934.0,1.0,257.0,1,0.36615965455638444,0.0
320,320,0.042647417576632485,0.0,0,407.0,843.0,0.0,840.0,1,0.16779130246685026,0.0
321,321,0.7291252015204761,0.7,0,334.0,548.0,0.0,178.0,1,0.885391374210649,0.0
322,322,0.7175490942675633,0.7,0,327.0,654.0,0.0,499.0,1,0.10062500995650059,0.0
323,323,-0.6724486012206192,-0.7,1,313.0,631.0,1.0,266.0,1,0.7572876380204066,0.0
324,324,-0.17943537949202693,-0.2,1,317.0,679.0,1.0,534.0,1,0.013053924438169218,0.0
325,325,-0.23309123256778208,-0.2,1,400.0,665.0,1.0,175.0,1,0.702884936232584,0.0
326,326,-0.8380860810474036,-0.8,1,305.0,901.0,1.0,294.0,1,0.33613926520934057,0.0
327,327,-0.4384183511420392,-0.4,1,490.0,621.0,1.0,379.0,1,0.2829885357793407,0.0
328,328,0.6387781505249432,0.6,0,382.0,785.0,0.0,133.0,1,0.8573745958496705,0.0
329,329,0.5449195569729204,0.5,0,411.0,811.0,0.0,378.0,1,0.32479746207520166,0.0
330,330,0.24644308365512702,0.2,0,272.0,883.0,0.0,245.0,1,0.8631048824338834,0.0
331,331,0.052542931691901495,0.1,0,458.0,634.0,1.0,738.0,0,0.25565469447841427,0.0
332,332,0.24222636288308852,0.2,0,419.0,900.0,0.0,261.0,1,0.26300526096788934,0.0
333,333,0.18759356674221928,0.2,0,325.0,901.0,0.0,494.0,1,0.07530651350792694,0.0
334,334,0.2303840872398899,0.2,0,281.0,988.0,0.0,591.0,1,0.5559292991014039,0.0
335,335,0.14291411189373227,0.1,0,391.0,621.0,0.0,758.0,1,0.8747590576291326,0.0
336,336,0.33367788620030914,0.3,0,418.0,753.0,0.0,179.0,1,0.24623930020804496,0.0
337,337,-0.7951218082500542,-0.8,1,491.0,961.0,1.0,258.0,1,0.13047023015812087,0.0
338,338,0.9136692904964188,0.9,0,446.0,777.0,0.0,177.0,1,0.4492701733804584,0.0
339,339,0.20477897321503158,0.2,0,445.0,757.0,0.0,648.0,1,0.01914734184900191,0.0
340,340,0.6038549778275857,0.6,0,287.0,740.0,0.0,203.0,1,0.9483756874998863,0.0
341,341,-0.5377461391850642,-0.5,1,347.0,876.0,1.0,297.0,1,0.5256410908719488,0.0
342,342,-0.6650447798531902,-0.7,1,430.0,879.0,1.0,341.0,1,0.15121682353625787,0.0
343,343,0.9029023026989902,0.9,0,349.0,682.0,0.0,129.0,1,0.8425614498352997,0.0
344,344,0.2425556805339919,0.2,0,482.0,950.0,0.0,588.0,1,0.03079733115769856,0.0
345,345,-0.1054054904347177,-0.1,1,364.0,588.0,1.0,1068.0,1,0.569248243889855,0.0
346,346,-0.1942152988401653,-0.2,1,385.0,647.0,1.0,338.0,1,0.52193942450359,0.0
347,347,0.5928902788286217,0.6,0,459.0,990.0,0.0,211.0,1,0.3740039707974592,0.0
348,348,0.2776123808836819,0.3,0,458.0,685.0,0.0,447.0,1,0.8131495164857833,0.0
349,349,0.5890913726977276,0.6,0,374.0,590.0,0.0,176.0,1,0.2672963118811128,0.0
350,350,-0.6940705200981816,-0.7,1,453.0,556.0,1.0,241.0,1,0.9685082107450216,0.0
351,351,0.7561212821054397,0.8,0,292.0,782.0,0.0,216.0,1,0.26771868807159405,0.0
352,352,0.909468614337027,0.9,0,344.0,638.0,0.0,108.0,1,0.48674001729288463,0.0
353,353,0.7712099507709627,0.8,0,287.0,916.0,0.0,247.0,1,0.6250454745825267,0.0
354,354,0.919798122425133,0.9,0,498.0,632.0,0.0,220.0,1,0.38115500754242826,0.0
355,355,0.1893144343717552,0.2,0,268.0,966.0,0.0,276.0,1,0.9256633846470154,0.0
356,356,-0.9131542915040527,-0.9,1,362.0,835.0,1.0,313.0,1,0.029817136013693513,0.0
357,357,0.8550367618714438,0.9,0,394.0,998.0,0.0,188.0,1,0.8037373973820385,0.0
358,358,-0.7403824856918539,-0.7,1,457.0,622.0,1.0,301.0,1,0.08357598369220387,0.0
359,359,0.08898732993552838,0.1,0,395.0,501.0,0.0,554.0,1,0.2696437565475529,0.0
360,360,-0.8365775096214374,-0.8,1,268.0,538.0,1.0,244.0,1,0.6115653115091997,0.0
361,361,-0.5538946266582043,-0.6,1,266.0,616.0,1.0,248.0,1,0.6032337199766495,0.0
362,362,-0.44372502919364076,-0.4,1,339.0,586.0,1.0,325.0,1,0.4233486314821535,0.0
363,363,-0.9783013557414209,-1.0,1,472.0,928.0,1.0,190.0,1,0.1683520165951744,0.0
364,364,-0.4848884590214739,-0.5,1,282.0,666.0,1.0,342.0,1,0.8992834628882806,0.0
365,365,0.25571459670044394,0.3,0,412.0,952.0,0.0,366.0,1,0.8314639178393821,0.0
366,366,-0.9782175949285854,-1.0,1,479.0,950.0,1.0,141.0,1,0.912972926854108,0.0
367,367,-0.015224674062629617,-0.0,1,419.0,981.0,0.0,690.0,0,0.3957939776955045,0.0
368,368,0.6673109892329125,0.7,0,360.0,959.0,0.0,111.0,1,0.7645158720480468,0.0
369,369,-0.8010279662996724,-0.8,1,443.0,639.0,1.0,408.0,1,0.3405336227869068,0.0
370,370,0.10925120534440946,0.1,0,481.0,972.0,0.0,697.0,1,0.9137326800646659,0.0
371,371,-0.2048886300011139,-0.2,1,407.0,733.0,1.0,290.0,1,0.6615752073843925,0.0
372,372,-0.5541324373984065,-0.6,1,444.0,956.0,1.0,280.0,1,0.2477353501395032,0.0
373,373,-0.4949868349026856,-0.5,1,473.0,757.0,1.0,440.0,1,0.3576218202491852,0.0
374,374,-0.14821783391485832,-0.1,1,321.0,992.0,1.0,347.0,1,0.2549673674449957,0.0
375,375,-0.07730482849150233,-0.1,1,385.0,640.0,1.0,255.0,1,0.6846029743354419,0.0
376,376,0.2046367009995238,0.2,0,421.0,936.0,0.0,313.0,1,0.9373247380840105,0.0
377,377,-0.8900883344215951,-0.9,1,451.0,697.0,1.0,132.0,1,0.9346021404952459,0.0
378,378,-0.29102813100339,-0.3,1,464.0,692.0,1.0,234.0,1,0.9705419998387281,0.0
379,379,-0.7876469812928941,-0.8,1,296.0,536.0,1.0,398.0,1,0.18289938040206954,0.0
380,380,-0.6270275028101586,-0.6,1,362.0,723.0,1.0,295.0,1,0.2735005976293332,0.0
381,381,0.7751207195274952,0.8,0,314.0,817.0,0.0,209.0,1,0.7025845556663289,0.0
382,382,0.5921608554634155,0.6,0,324.0,943.0,0.0,363.0,1,0.10366665874784553,0.0
383,383,-0.03420392127165184,-0.0,1,322.0,848.0,0.0,1380.0,0,0.6927568550729449,0.0
384,384,-0.0018479402764424169,-0.0,1,491.0,981.0,1.0,868.0,1,0.6668211453885167,0.0
385,385,-0.5412610888870522,-0.5,1,402.0,782.0,1.0,156.0,1,0.42551931729986847,0.0
386,386,-0.9872935034603341,-1.0,1,299.0,509.0,1.0,252.0,1,0.13741203721816375,0.0
387,387,0.7574012656979667,0.8,0,314.0,861.0,0.0,225.0,1,0.13474048459793664,0.0
388,388,0.5831538003515722,0.6,0,434.0,696.0,0.0,320.0,1,0.05512312160746924,0.0
389,389,0.7275652322409134,0.7,0,303.0,624.0,0.0,173.0,1,0.5375603711506153,0.0
390,390,-0.6256589342683538,-0.6,1,427.0,520.0,1.0,453.0,1,0.031567316649976584,0.0
391,391,-0.8490270930198287,-0.8,1,343.0,655.0,1.0,252.0,1,0.6068934962401755,0.0
392,392,-0.32781922745140224,-0.3,1,271.0,961.0,1.0,418.0,1,0.592876616830517,0.0
393,393,0.43240333224752936,0.4,0,385.0,859.0,0.0,236.0,1,0.644544626937403,0.0
394,394,-0.5461973204193649,-0.5,1,369.0,851.0,1.0,190.0,1,0.8382509953965879,0.0
395,395,-0.44737372491472227,-0.4,1,470.0,940.0,1.0,300.0,1,0.8479461039196285,0.0
396,396,0.27268182773596483,0.3,0,266.0,938.0,0.0,226.0,1,0.1574219176127165,0.0
397,397,-0.025029107587827504,-0.0,1,459.0,751.0,1.0,410.0,1,0.25502810019180644,0.0
398,398,-0.762249873870708,-0.8,1,326.0,937.0,1.0,287.0,1,0.6054342673237268,0.0
399,399,-0.033350696640165545,-0.0,1,417.0,791.0,1.0,292.0,1,0.060281519852920074,0.0
400,400,-0.8123129020247997,-0.8,1,266.0,535.0,1.0,199.0,1,0.9064260843332383,0.0
401,401,0.615818897471917,0.6,0,351.0,972.0,0.0,277.0,1,0.7481559350755973,0.0
402,402,0.6701105018204523,0.7,0,392.0,722.0,0.0,156.0,1,0.9673398103575541,0.0
403,403,-0.5218655775269103,-0.5,1,261.0,595.0,1.0,174.0,1,0.5658662653023308,0.0
404,404,0.160024336392796,0.2,0,330.0,804.0,0.0,396.0,1,0.7346019532479235,0.0
405,405,-0.5137565884471147,-0.5,1,350.0,686.0,1.0,264.0,1,0.019405464781304782,0.0
406,406,0.450563800604332,0.5,0,351.0,857.0,0.0,232.0,1,0.8357817780947473,0.0
407,407,0.691751020025819,0.7,0,303.0,609.0,0.0,208.0,1,0.9810977877230225,0.0
408,408,-0.6670452177439163,-0.7,1,398.0,895.0,1.0,237.0,1,0.4425338125382151,0.0
409,409,0.7637622528391819,0.8,0,373.0,995.0,0.0,202.0,1,0.7786657004976462,0.0
410,410,-0.11168052526576289,-0.1,1,442.0,655.0,0.0,1013.0,0,0.3520352009033587,0.0
411,411,-0.4938075871721861,-0.5,1,363.0,646.0,1.0,241.0,1,0.8146301623806784,0.0
412,412,-0.8632141196258385,-0.9,1,412.0,868.0,1.0,300.0,1,0.4421979261114092,0.0
413,413,0.9670190344156226,1.0,0,323.0,846.0,0.0,131.0,1,0.3313548007467443,0.0
414,414,-0.6446919402401288,-0.6,1,428.0,716.0,1.0,226.0,1,0.6471809213201333,0.0
415,415,-0.20022744529261893,-0.2,1,400.0,828.0,1.0,172.0,1,0.8826674398665698,0.0
416,416,0.7699765064216466,0.8,0,479.0,931.0,0.0,180.0,1,0.7771746014022686,0.0
417,417,0.4022600471778115,0.4,0,273.0,653.0,0.0,254.0,1,0.8833675968643069,0.0
418,418,0.15945657543392877,0.2,0,498.0,730.0,0.0,512.0,1,0.7692747939461524,0.0
419,419,-0.24344411272277977,-0.2,1,416.0,958.0,1.0,346.0,1,0.46154785187109615,0.0
420,420,0.9320814361615004,0.9,0,379.0,968.0,0.0,203.0,1,0.8913671633338823,0.0
421,421,0.11244696781242891,0.1,0,490.0,730.0,0.0,620.0,1,0.23038121388630894,0.0
422,422,0.9111931916005866,0.9,0,274.0,614.0,0.0,412.0,1,0.10979773200306497,0.0
423,423,0.9034736794112872,0.9,0,277.0,711.0,0.0,182.0,1,0.31064792947030917,0.0
424,424,0.9532871254045714,1.0,0,451.0,942.0,0.0,187.0,1,0.49285303210613407,0.0
425,425,-0.6140680895623605,-0.6,1,346.0,971.0,1.0,293.0,1,0.21929069029075388,0.0
426,426,-0.39530781799185855,-0.4,1,367.0,822.0,1.0,201.0,1,0.9207612827118131,0.0
427,427,0.577160114931301,0.6,0,452.0,673.0,0.0,235.0,1,0.7809645499978489,0.0
428,428,0.6445946928981823,0.6,0,386.0,999.0,0.0,265.0,1,0.4536941718413865,0.0
429,429,-0.16504631803483472,-0.2,1,438.0,693.0,1.0,329.0,1,0.24176972041095413,0.0
430,430,-0.05120658066464068,-0.1,1,256.0,647.0,1.0,497.0,1,0.7677236075093417,0.0
431,431,-0.7712524528400155,-0.8,1,457.0,756.0,1.0,347.0,1,0.47001407675013995,0.0
432,432,0.7644151485770572,0.8,0,479.0,637.0,0.0,194.0,1,0.8577275920255962,0.0
433,433,0.35473960730852583,0.4,0,327.0,574.0,0.0,459.0,1,0.4785778781264368,0.0
434,434,0.22276915096026895,0.2,0,314.0,546.0,0.0,510.0,1,0.34054678634780133,0.0
435,435,0.8434288516877682,0.8,0,414.0,893.0,0.0,263.0,1,0.35658633997740785,0.0
436,436,-0.382386846631779,-0.4,1,469.0,568.0,1.0,293.0,1,0.6726287101690764,0.0
437,437,0.12732481886847724,0.1,0,437.0,528.0,0.0,215.0,1,0.7483749033924278,0.0
438,438,-0.536558710147168,-0.5,1,412.0,611.0,1.0,217.0,1,0.3446503885433999,0.0
439,439,0.45511340931337596,0.5,0,262.0,746.0,0.0,192.0,1,0.7181237912577971,0.0
440,440,0.5540639480793172,0.6,0,426.0,649.0,0.0,355.0,1,0.9133471910855032,0.0
441,441,-0.618435313766978,-0.6,1,320.0,950.0,1.0,250.0,1,0.7256078085400041,0.0
442,442,-0.9052130840262804,-0.9,1,283.0,777.0,1.0,220.0,1,0.7259094620160654,0.0
443,443,0.18517563597202935,0.2,0,292.0,695.0,0.0,213.0,1,0.9195128243512282,0.0
444,444,0.33634526912020957,0.3,0,370.0,988.0,0.0,152.0,1,0.9595855211171233,0.0
445,445,-0.041886767662502544,-0.0,1,325.0,710.0,1.0,645.0,1,0.599107432768787,0.0
446,446,0.033885344469738676,0.0,0,350.0,694.0,0.0,366.0,1,0.5206803658638016,0.0
447,447,0.5763327132082787,0.6,0,431.0,557.0,0.0,172.0,1,0.12933123638297062,0.0
448,448,0.015080022874231602,0.0,0,468.0,793.0,1.0,479.0,0,0.6589618066264116,0.0
449,449,0.8208517982557395,0.8,0,255.0,845.0,0.0,450.0,1,0.029767289626004723,0.0
450,450,-0.6350720833657588,-0.6,1,358.0,857.0,1.0,295.0,1,0.1403498046491436,0.0
451,451,-0.15553950432686592,-0.2,1,297.0,893.0,1.0,1470.0,1,0.08454476822427814,0.0
452,452,-0.25520083234737445,-0.3,1,290.0,572.0,1.0,548.0,1,0.24892689461751027,0.0
453,453,-0.2656576716346475,-0.3,1,476.0,724.0,1.0,260.0,1,0.7472458519241487,0.0
454,454,-0.008965904069041963,-0.0,1,376.0,704.0,1.0,360.0,1,0.302275485956391,0.0
455,455,-0.22183088125196582,-0.2,1,381.0,739.0,1.0,190.0,1,0.7991573034255823,0.0
456,456,0.6041987693038635,0.6,0,359.0,841.0,0.0,310.0,1,0.4173711521110791,0.0
457,457,0.41393760942670954,0.4,0,393.0,632.0,0.0,185.0,1,0.660380596679379,0.0
458,458,-0.03824505518454746,-0.0,1,320.0,749.0,1.0,301.0,1,0.789439774822,0.0
459,459,0.16956462475273315,0.2,0,279.0,561.0,0.0,580.0,1,0.26051001508349914,0.0
460,460,0.605437518202183,0.6,0,424.0,969.0,0.0,197.0,1,0.8677239619111392,0.0
461,461,-0.5221708115434438,-0.5,1,415.0,755.0,1.0,170.0,1,0.05562935383296452,0.0
462,462,0.9742910872457173,1.0,0,255.0,887.0,0.0,168.0,1,0.9560385285998207,0.0
463,463,-0.31094010490763613,-0.3,1,286.0,728.0,1.0,266.0,1,0.5533669989590808,0.0
464,464,-0.23302713223483607,-0.2,1,368.0,719.0,1.0,173.0,1,0.8124420098488935,0.0
465,465,-0.6778239299814615,-0.7,1,369.0,863.0,1.0,288.0,1,0.4000959113770646,0.0
466,466,0.18431188714506974,0.2,0,343.0,677.0,0.0,410.0,1,0.14684054403782498,0.0
467,467,-0.1624539185567515,-0.2,1,357.0,730.0,0.0,1173.0,0,0.8762679626621125,0.0
468,468,0.5759323192045369,0.6,0,307.0,817.0,0.0,186.0,1,0.8334777762315471,0.0
469,469,0.2601246291136199,0.3,0,280.0,778.0,0.0,512.0,1,0.38411633204384044,0.0
470,470,-0.055755415018310606,-0.1,1,475.0,648.0,1.0,897.0,1,0.10265679557704177,0.0
471,471,-0.5436594332688713,-0.5,1,476.0,806.0,1.0,208.0,1,0.582535113754527,0.0
472,472,0.9099483634025236,0.9,0,353.0,596.0,0.0,181.0,1,0.382645474324272,0.0
473,473,0.4087790805326166,0.4,0,260.0,949.0,0.0,371.0,1,0.9081770866844656,0.0
474,474,-0.2556341406561591,-0.3,1,338.0,946.0,1.0,266.0,1,0.6241805777450248,0.0
475,475,0.7173328205524443,0.7,0,254.0,692.0,0.0,164.0,1,0.6683128246197414,0.0
476,476,-0.1768091358373074,-0.2,1,287.0,890.0,1.0,333.0,1,0.3351099490262561,0.0
477,477,-0.6619873869469888,-0.7,1,424.0,620.0,1.0,216.0,1,0.6954493694798346,0.0
478,478,-0.059154365641614026,-0.1,1,389.0,901.0,1.0,390.0,1,0.2185252214812976,0.0
479,479,0.803667026996536,0.8,0,429.0,518.0,0.0,143.0,1,0.9431066633635541,0.0
480,480,0.433948163453157,0.4,0,318.0,502.0,0.0,210.0,1,0.9859233230605098,0.0
481,481,-0.7944661717716612,-0.8,1,282.0,940.0,1.0,258.0,1,0.7477819526892134,0.0
482,482,-0.4829964467878567,-0.5,1,316.0,703.0,1.0,331.0,1,0.30221005577963433,0.0
483,483,0.2543942130914665,0.3,0,454.0,520.0,0.0,286.0,1,0.551635530047422,0.0
484,484,-0.1013762719766853,-0.1,1,328.0,898.0,1.0,654.0,1,0.7579506232105329,0.0
485,485,-0.08297943169023658,-0.1,1,337.0,869.0,1.0,814.0,1,0.28995679141822917,0.0
486,486,-0.7984684544606739,-0.8,1,317.0,871.0,1.0,132.0,1,0.7480863595556253,0.0
487,487,0.8615391135452801,0.9,0,313.0,975.0,0.0,272.0,1,0.2011057770271233,0.0
488,488,0.5383982678544483,0.5,0,485.0,672.0,0.0,153.0,1,0.9564656655578807,0.0
489,489,-0.5277580270222728,-0.5,1,497.0,987.0,1.0,256.0,1,0.8064797525447468,0.0
490,490,-0.03354726108631434,-0.0,1,388.0,735.0,1.0,1497.0,1,0.1571401019344818,0.0
491,491,-0.3730830514157466,-0.4,1,267.0,595.0,1.0,288.0,1,0.7058819245223549,0.0
492,492,0.6936156039504078,0.7,0,382.0,881.0,0.0,307.0,1,0.4643006551834612,0.0
493,493,-0.7447090149685445,-0.7,1,469.0,788.0,1.0,213.0,1,0.8454364043016248,0.0
494,494,-0.32069724705388625,-0.3,1,394.0,833.0,1.0,503.0,1,0.40240377251906223,0.0
495,495,-0.8732851490795273,-0.9,1,356.0,738.0,1.0,276.0,1,0.21665097362394525,0.0
496,496,0.506190760634792,0.5,0,253.0,639.0,0.0,198.0,1,0.9125087642007819,0.0
497,497,0.8253081711239167,0.8,0,336.0,535.0,0.0,149.0,1,0.6195122432987823,0.0
498,498,-0.8900210809966531,-0.9,1,371.0,912.0,1.0,207.0,1,0.813970429701151,0.0
499,499,-0.36142126308019895,-0.4,1,471.0,518.0,1.0,171.0,1,0.6074100895369287,0.0
500,500,-0.838794442936788,-0.8,1,431.0,520.0,1.0,249.0,1,0.543061723565797,0.0
501,501,0.5151835665627666,0.5,0,339.0,580.0,0.0,341.0,1,0.44298442889128475,0.0
502,502,0.08568596918204929,0.1,0,294.0,630.0,0.0,676.0,1,0.03478941460393936,0.0
503,503,-0.9169767454464779,-0.9,1,305.0,504.0,1.0,211.0,1,0.574868354719288,0.0
504,504,-0.980444100985953,-1.0,1,317.0,854.0,1.0,309.0,1,0.22654329105986737,0.0
505,505,0.016786803922623106,0.0,0,440.0,856.0,1.0,1014.0,0,0.17380479733387733,0.0
506,506,0.5303055357928743,0.5,0,253.0,601.0,0.0,346.0,1,0.4990055612659552,0.0
507,507,0.6223163345379066,0.6,0,369.0,793.0,0.0,238.0,1,0.5348777782282168,0.0
508,508,-0.8093880892925494,-0.8,1,371.0,962.0,1.0,177.0,1,0.46020895932508643,0.0
509,509,-0.6259319107469705,-0.6,1,431.0,962.0,1.0,207.0,1,0.5285557852855671,0.0
510,510,0.18571990989813103,0.2,0,412.0,551.0,0.0,547.0,1,0.34062325814561834,0.0
511,511,-0.8717768922247682,-0.9,1,265.0,965.0,1.0,570.0,1,0.024935802926922546,0.0
512,512,0.28887034741317996,0.3,0,412.0,635.0,0.0,323.0,1,0.6033151167828406,0.0
513,513,-0.31314824681125275,-0.3,1,499.0,583.0,1.0,1058.0,1,0.07005649734616926,0.0
514,514,0.4532771826571034,0.5,0,259.0,559.0,0.0,282.0,1,0.45440242215588833,0.0
515,515,0.1831586983813982,0.2,0,386.0,640.0,0.0,364.0,1,0.357786338643853,0.0
516,516,-0.6120672338320146,-0.6,1,343.0,817.0,1.0,460.0,1,0.02271428253051677,0.0
517,517,-0.2970299561847214,-0.3,1,349.0,997.0,1.0,214.0,1,0.7034236183741394,0.0
518,518,0.0708093966600889,0.1,0,365.0,935.0,0.0,290.0,1,0.7736182425146436,0.0
519,519,-0.9749173615618276,-1.0,1,430.0,748.0,1.0,292.0,1,0.4476580982616192,0.0
520,520,0.11915591579736717,0.1,0,410.0,702.0,0.0,1308.0,1,0.03362611202789689,0.0
521,521,0.35318309741058607,0.4,0,250.0,511.0,0.0,469.0,1,0.2992198025748526,0.0
522,522,-0.43553842684300825,-0.4,1,481.0,772.0,1.0,307.0,1,0.18257405662743942,0.0
523,523,0.16104099993698773,0.2,0,473.0,650.0,1.0,277.0,0,0.7881995422914121,0.0
524,524,0.518534283559573,0.5,0,334.0,871.0,0.0,165.0,1,0.8561926747724118,0.0
525,525,-0.9755959899482827,-1.0,1,424.0,715.0,1.0,371.0,1,0.03493611532856411,0.0
526,526,-0.8381920655911794,-0.8,1,388.0,693.0,1.0,239.0,1,0.08201018184692344,0.0
527,527,-0.0710810309254386,-0.1,1,292.0,888.0,1.0,810.0,1,0.4040284028144575,0.0
528,528,0.5898001660878942,0.6,0,387.0,888.0,0.0,185.0,1,0.4357434469141238,0.0
529,529,0.10813424523817816,0.1,0,404.0,924.0,1.0,972.0,0,0.7864724662243173,0.0
530,530,-0.3369183127056947,-0.3,1,485.0,891.0,1.0,444.0,1,0.096142394214079,0.0
531,531,0.9367327870881552,0.9,0,463.0,769.0,0.0,128.0,1,0.9979972077351275,0.0
532,532,0.5879089745398816,0.6,0,340.0,637.0,0.0,263.0,1,0.5506995516807722,0.0
533,533,-0.34966213748840635,-0.3,1,359.0,837.0,1.0,514.0,1,0.02021750590651905,0.0
534,534,0.6000240166689081,0.6,0,371.0,508.0,0.0,281.0,1,0.615714734002111,0.0
535,535,0.8111063882168321,0.8,0,342.0,532.0,0.0,266.0,1,0.1420272889489621,0.0
536,536,0.48089542380002936,0.5,0,333.0,660.0,0.0,297.0,1,0.6979094898856055,0.0
537,537,0.9080365093082472,0.9,0,303.0,642.0,0.0,185.0,1,0.7184801714939827,0.0
538,538,0.4154195788071382,0.4,0,440.0,954.0,0.0,366.0,1,0.8385053671192646,0.0
539,539,0.5794745098028553,0.6,0,361.0,753.0,0.0,336.0,1,0.13497602397160924,0.0
540,540,-0.02331574545534587,-0.0,1,404.0,698.0,1.0,258.0,1,0.8800601869075219,0.0
541,541,0.05336375948293459,0.1,0,368.0,877.0,1.0,1485.0,0,0.29623884161216807,0.0
542,542,0.11664491466165638,0.1,0,263.0,981.0,0.0,556.0,1,0.49104225911918453,0.0
543,543,0.5854767192923556,0.6,0,320.0,921.0,0.0,1199.0,1,0.08800843269578829,0.0
544,544,-0.7608648575233261,-0.8,1,408.0,683.0,1.0,299.0,1,0.32546371624952897,0.0
545,545,0.8403891314599425,0.8,0,299.0,664.0,0.0,367.0,1,0.1581224251098825,0.0
546,546,-0.617027379608843,-0.6,1,269.0,976.0,1.0,425.0,1,0.22633994198912555,0.0
547,547,0.4741406039092009,0.5,0,357.0,975.0,0.0,208.0,1,0.7257814794849246,0.0
548,548,0.04274577411889924,0.0,0,377.0,619.0,1.0,244.0,0,0.7863520899145169,0.0
549,549,-0.25451751342578666,-0.3,1,383.0,504.0,1.0,293.0,1,0.9713964486886631,0.0
550,550,0.752206637924036,0.8,0,337.0,692.0,0.0,301.0,1,0.19415123043633586,0.0
551,551,-0.22973382343706672,-0.2,1,395.0,554.0,1.0,411.0,1,0.4165740965416672,0.0
552,552,0.5756033296902918,0.6,0,375.0,537.0,0.0,148.0,1,0.6504688977129219,0.0
553,553,0.6016801952581583,0.6,0,286.0,645.0,0.0,199.0,1,0.5961675695809648,0.0
554,554,-0.6232449725416556,-0.6,1,300.0,524.0,1.0,156.0,1,0.5481654464600182,0.0
555,555,-0.4546985508409125,-0.5,1,268.0,895.0,1.0,237.0,1,0.9651844825244849,0.0
556,556,-0.19251907280113834,-0.2,1,391.0,876.0,1.0,493.0,1,0.7103754091080823,0.0
557,557,0.3754705261757618,0.4,0,472.0,617.0,0.0,561.0,1,0.1293535606081646,0.0
558,558,0.47337244477256335,0.5,0,492.0,865.0,0.0,303.0,1,0.4218002323472769,0.0
559,559,0.024913074449183448,0.0,0,463.0,643.0,0.0,364.0,1,0.8427695131290497,0.0
560,560,-0.46472523478928074,-0.5,1,415.0,564.0,1.0,271.0,1,0.33358563681735276,0.0
561,561,0.7382149386653536,0.7,0,407.0,676.0,0.0,207.0,1,0.8015027131210914,0.0
562,562,0.09414988882212239,0.1,0,397.0,909.0,0.0,384.0,1,0.6016218566590321,0.0
563,563,-0.6962566085694355,-0.7,1,285.0,849.0,1.0,246.0,1,0.002893750665142414,0.0
564,564,0.32549095823163543,0.3,0,438.0,662.0,0.0,390.0,1,0.4873852189484972,0.0
565,565,-0.5287451737665037,-0.5,1,309.0,713.0,1.0,228.0,1,0.5495114092072445,0.0
566,566,-0.9784959329705825,-1.0,1,368.0,628.0,1.0,244.0,1,0.8077348320213321,0.0
567,567,0.6650384258869697,0.7,0,487.0,523.0,0.0,440.0,1,0.3681912491087852,0.0
568,568,0.021335498720083113,0.0,0,310.0,920.0,0.0,410.0,1,0.5956958121081354,0.0
569,569,-0.02258975188172574,-0.0,1,309.0,895.0,1.0,696.0,1,0.32676328826909884,0.0
570,570,0.6400409726253486,0.6,0,368.0,528.0,0.0,194.0,1,0.6703252552866271,0.0
571,571,0.3987137855770386,0.4,0,399.0,902.0,0.0,289.0,1,0.440018490298109,0.0
572,572,-0.8130679122586286,-0.8,1,285.0,766.0,1.0,239.0,1,0.5885111387999123,0.0
573,573,0.701927094650677,0.7,0,458.0,951.0,0.0,181.0,1,0.8979155336007013,0.0
574,574,-0.3780597412355411,-0.4,1,274.0,963.0,1.0,483.0,1,0.6950187639442672,0.0
575,575,-0.3886694804675075,-0.4,1,302.0,990.0,1.0,1038.0,1,0.13058043348726822,0.0
576,576,0.5787317836289865,0.6,0,345.0,765.0,0.0,240.0,1,0.5993764158557059,0.0
577,577,-0.7220230574663988,-0.7,1,450.0,946.0,1.0,364.0,1,0.10813438435724887,0.0
578,578,-0.6449984662498212,-0.6,1,498.0,502.0,1.0,500.0,1,0.06134955196268266,0.0
579,579,0.7908976217301773,0.8,0,434.0,920.0,0.0,186.0,1,0.6793470514277915,0.0
580,580,-0.3151388727135018,-0.3,1,343.0,712.0,1.0,225.0,1,0.9131470382722696,0.0
581,581,0.5601785767981422,0.6,0,357.0,586.0,0.0,257.0,1,0.9951458311741631,0.0
582,582,0.22013010246291653,0.2,0,410.0,653.0,0.0,107.0,1,0.7092798623445348,0.0
583,583,-0.02309993350144235,-0.0,1,285.0,591.0,1.0,364.0,1,0.9846533199575122,0.0
584,584,0.7523378800609015,0.8,0,466.0,774.0,0.0,240.0,1,0.26318753525350536,0.0
585,585,-0.18623751084237838,-0.2,1,495.0,640.0,1.0,405.0,1,0.33723522946822915,0.0
586,586,0.8873161175035853,0.9,0,351.0,518.0,0.0,201.0,1,0.6441133747522808,0.0
587,587,-0.19000080600593106,-0.2,1,344.0,588.0,1.0,408.0,1,0.5014164659700204,0.0
588,588,-0.7301386715818277,-0.7,1,299.0,565.0,1.0,276.0,1,0.4098198075324413,0.0
589,589,0.24858150887704156,0.2,0,329.0,613.0,0.0,358.0,1,0.4071162392039801,0.0
590,590,0.962472349929961,1.0,0,284.0,666.0,0.0,150.0,1,0.736790044556572,0.0
591,591,-0.8789689691188236,-0.9,1,358.0,959.0,1.0,233.0,1,0.674567858955765,0.0
592,592,0.027918128194898584,0.0,0,256.0,656.0,0.0,518.0,1,0.22555727899563638,0.0
593,593,-0.42783739659837017,-0.4,1,421.0,583.0,1.0,316.0,1,0.5179407169329951,0.0
594,594,-0.7818613334500126,-0.8,1,305.0,972.0,1.0,303.0,1,0.4053311858439467,0.0
595,595,-0.8202032791524076,-0.8,1,437.0,521.0,1.0,392.0,1,0.25678698539877987,0.0
596,596,0.2382572989049121,0.2,0,287.0,520.0,0.0,313.0,1,0.4785358300531679,0.0
597,597,-0.8230215569468395,-0.8,1,281.0,866.0,1.0,173.0,1,0.3184456452708667,0.0
598,598,-0.7325518467350314,-0.7,1,410.0,647.0,1.0,233.0,1,0.7692868805173172,0.0
599,599,-0.40534055233264343,-0.4,1,474.0,509.0,1.0,167.0,1,0.7742908737231593,0.0
600,600,-0.19541125500956147,-0.2,1,434.0,924.0,1.0,312.0,1,0.3652779202628281,0.0
601,601,0.11444869739827412,0.1,0,366.0,704.0,0.0,670.0,1,0.3386066741702225,0.0
602,602,-0.00569911995919381,-0.0,1,381.0,961.0,0.0,3288.0,0,0.005133025524020507,0.0
603,603,-0.49632827257382917,-0.5,1,473.0,752.0,1.0,235.0,1,0.13356124297287386,0.0
604,604,-0.88321474112642,-0.9,1,468.0,673.0,1.0,299.0,1,0.3476736996232943,0.0
605,605,-0.249705730731278,-0.2,1,423.0,542.0,1.0,745.0,1,0.45277623324387084,0.0
606,606,0.4440841946694212,0.4,0,345.0,811.0,0.0,454.0,1,0.30275273192398655,0.0
607,607,-0.09659355468223652,-0.1,1,299.0,953.0,1.0,238.0,1,0.5630159402963576,0.0
608,608,-0.3436292766214073,-0.3,1,346.0,602.0,1.0,302.0,1,0.7341368471374801,0.0
609,609,-0.5720166866618863,-0.6,1,271.0,672.0,1.0,307.0,1,0.2907021079731794,0.0
610,610,0.5464242867946549,0.5,0,388.0,647.0,0.0,175.0,1,0.785901685013402,0.0
611,611,-0.3635254053601975,-0.4,1,320.0,585.0,1.0,215.0,1,0.5391747202335434,0.0
612,612,-0.31136501462227484,-0.3,1,494.0,566.0,1.0,400.0,1,0.6018755695575722,0.0
613,613,0.2994435082462652,0.3,0,373.0,872.0,0.0,425.0,1,0.2941506920296746,0.0
614,614,0.39972962985410243,0.4,0,412.0,741.0,0.0,317.0,1,0.059307326865529864,0.0
615,615,-0.9031801122910634,-0.9,1,498.0,917.0,1.0,305.0,1,0.04356726876384809,0.0
616,616,0.5821346291540084,0.6,0,469.0,766.0,0.0,335.0,1,0.16916970445339774,0.0
617,617,0.9229289742971198,0.9,0,399.0,731.0,0.0,220.0,1,0.24419157451458684,0.0
618,618,-0.576085651138815,-0.6,1,436.0,688.0,1.0,336.0,1,0.11459460295710377,0.0
619,619,0.9953732486982625,1.0,0,435.0,661.0,0.0,124.0,1,0.8962230939208178,0.0
620,620,-0.22027295739071384,-0.2,1,312.0,715.0,1.0,303.0,1,0.9705763135256247,0.0
621,621,-0.016185794396067488,-0.0,1,358.0,584.0,0.0,1308.0,0,0.10335190624570989,0.0
622,622,-0.14305061201527747,-0.1,1,257.0,840.0,1.0,883.0,1,0.29348980990915663,0.0
623,623,0.2785385802194871,0.3,0,343.0,691.0,0.0,886.0,1,0.9925611618753188,0.0
624,624,0.8062684340129698,0.8,0,424.0,508.0,0.0,168.0,1,0.747439037911348,0.0
625,625,0.9220220065696692,0.9,0,365.0,951.0,0.0,164.0,1,0.9395684108677648,0.0
626,626,-0.8703447578898327,-0.9,1,359.0,726.0,1.0,155.0,1,0.5165161936852712,0.0
627,627,-0.7549603607017017,-0.8,1,365.0,688.0,1.0,237.0,1,0.29880265695645625,0.0
628,628,-0.28447247895786165,-0.3,1,478.0,845.0,1.0,457.0,1,0.13837473031202197,0.0
629,629,0.3551104063559072,0.4,0,329.0,532.0,0.0,709.0,1,0.13681374518169886,0.0
630,630,0.3680424165898246,0.4,0,268.0,612.0,0.0,280.0,1,0.40002219074356016,0.0
631,631,-0.699332134002856,-0.7,1,252.0,692.0,1.0,266.0,1,0.8659596388796609,0.0
632,632,-0.5681845835611112,-0.6,1,411.0,541.0,1.0,208.0,1,0.8010621580055658,0.0
633,633,0.18110795544299196,0.2,0,353.0,684.0,0.0,343.0,1,0.23143722942505762,0.0
634,634,-0.8575117003044996,-0.9,1,433.0,548.0,1.0,249.0,1,0.6028380033776567,0.0
635,635,-0.718048051065455,-0.7,1,342.0,755.0,1.0,223.0,1,0.6443448264013726,0.0
636,636,-0.12275371861162498,-0.1,1,363.0,610.0,1.0,677.0,1,0.09897386381350615,0.0
637,637,0.5629297924403858,0.6,0,346.0,759.0,0.0,305.0,1,0.7197425289369195,0.0
638,638,0.5478995494186469,0.5,0,406.0,677.0,0.0,227.0,1,0.2839352623513386,0.0
639,639,0.6056813414256021,0.6,0,267.0,834.0,0.0,259.0,1,0.0289867333899666,0.0
640,640,-0.40426213138083034,-0.4,1,257.0,672.0,1.0,611.0,1,0.22071395291731077,0.0
641,641,-0.19303491664805095,-0.2,1,294.0,728.0,1.0,358.0,1,0.7627229571090991,0.0
642,642,-0.7380814792194743,-0.7,1,320.0,576.0,1.0,294.0,1,0.6521422714786529,0.0
643,643,0.1630221889439294,0.2,0,323.0,598.0,0.0,389.0,1,0.07329353508069814,0.0
644,644,-0.48597059660182995,-0.5,1,419.0,616.0,1.0,195.0,1,0.8382115695298314,0.0
645,645,0.541202210033807,0.5,0,327.0,969.0,0.0,224.0,1,0.3118460170354127,0.0
646,646,0.48315167072175336,0.5,0,462.0,779.0,0.0,309.0,1,0.9068322526213084,0.0
647,647,0.7189380806495023,0.7,0,443.0,638.0,0.0,259.0,1,0.0970920845544373,0.0
648,648,0.265229737838639,0.3,0,415.0,838.0,0.0,357.0,1,0.351294345152668,0.0
649,649,-0.21118971719255075,-0.2,1,439.0,509.0,1.0,472.0,1,0.6358045850357656,0.0
650,650,-0.14639427521390225,-0.1,1,370.0,781.0,1.0,169.0,1,0.7759978118341976,0.0
651,651,0.9963445290413269,1.0,0,405.0,842.0,0.0,153.0,1,0.27712287733409224,0.0
652,652,0.9265733188974161,0.9,0,495.0,917.0,0.0,258.0,1,0.8410965838436073,0.0
653,653,-0.7508132183027472,-0.8,1,381.0,802.0,1.0,287.0,1,0.6448311050521792,0.0
654,654,0.6307806832094844,0.6,0,397.0,994.0,0.0,219.0,1,0.7873503578022311,0.0
655,655,-0.6304554122973036,-0.6,1,343.0,887.0,1.0,150.0,1,0.9029246834781823,0.0
656,656,-0.32898385198432667,-0.3,1,447.0,933.0,1.0,320.0,1,0.3587436679143349,0.0
657,657,0.2855584722428819,0.3,0,365.0,974.0,0.0,751.0,1,0.10957705864439049,0.0
658,658,-0.02182886570685083,-0.0,1,426.0,626.0,1.0,198.0,1,0.8533915642145805,0.0
659,659,0.8075989435510742,0.8,0,312.0,763.0,0.0,175.0,1,0.7981034565468895,0.0
660,660,-0.13552202822540926,-0.1,1,425.0,789.0,1.0,486.0,1,0.215410636576436,0.0
661,661,0.3802976940435525,0.4,0,396.0,842.0,0.0,432.0,1,0.8072697357872335,0.0
662,662,0.16125056019340334,0.2,0,423.0,888.0,0.0,369.0,1,0.4350714617750234,0.0
663,663,-0.06643363088165644,-0.1,1,431.0,998.0,1.0,491.0,1,0.009184327471558507,0.0
664,664,-0.14657586960753077,-0.1,1,425.0,702.0,1.0,533.0,1,0.19520675295185774,0.0
665,665,0.3733423304703083,0.4,0,296.0,711.0,0.0,203.0,1,0.9720764021460265,0.0
666,666,-0.6931082918242144,-0.7,1,291.0,745.0,1.0,264.0,1,0.5594040778486171,0.0
667,667,-0.6065958508153506,-0.6,1,369.0,754.0,1.0,247.0,1,0.4114519718078694,0.0
668,668,-0.16515216138113487,-0.2,1,393.0,865.0,1.0,472.0,1,0.3668899312917696,0.0
669,669,-0.01808090640486837,-0.0,1,308.0,701.0,1.0,1341.0,1,0.123010506892684,0.0
670,670,0.214347703073126,0.2,0,277.0,735.0,0.0,208.0,1,0.7812747046273523,0.0
671,671,-0.18445508192463378,-0.2,1,410.0,722.0,1.0,258.0,1,0.7026737318344487,0.0
672,672,-0.9279002966254506,-0.9,1,355.0,681.0,1.0,194.0,1,0.5728259849990662,0.0
673,673,-0.020906523207548044,-0.0,1,487.0,693.0,0.0,160.0,0,0.5226064517380237,0.0
674,674,-0.15610784992202853,-0.2,1,376.0,559.0,1.0,245.0,1,0.06329727039065769,0.0
675,675,-0.983027172242172,-1.0,1,343.0,955.0,1.0,122.0,1,0.9007200228556237,0.0
676,676,-0.7143947782437536,-0.7,1,345.0,539.0,1.0,356.0,1,0.6113818252509821,0.0
677,677,-0.7020031584500817,-0.7,1,407.0,517.0,1.0,186.0,1,0.6240040853738227,0.0
678,678,0.2238666600626893,0.2,0,449.0,746.0,0.0,475.0,1,0.2335383320809017,0.0
679,679,0.6166695970561635,0.6,0,278.0,668.0,0.0,214.0,1,0.43430500703396013,0.0
680,680,0.09396865976224955,0.1,0,480.0,510.0,0.0,680.0,1,0.5552314072511153,0.0
681,681,-0.021320822829618225,-0.0,1,377.0,520.0,0.0,693.0,0,0.5779552165829043,0.0
682,682,0.9003641734991998,0.9,0,345.0,634.0,0.0,101.0,1,0.8509693032973449,0.0
683,683,0.664271702185004,0.7,0,498.0,785.0,0.0,307.0,1,0.7888044302719854,0.0
684,684,-0.8185728424417951,-0.8,1,344.0,917.0,1.0,199.0,1,0.9490606688069505,0.0
685,685,0.9383713536902121,0.9,0,408.0,885.0,0.0,177.0,1,0.3453726410552572,0.0
686,686,0.45358917279143207,0.5,0,301.0,786.0,0.0,293.0,1,0.8503668157406977,0.0
687,687,0.036182475629389144,0.0,0,321.0,760.0,1.0,259.0,0,0.5830028260372226,0.0
688,688,-0.6006942594118136,-0.6,1,358.0,990.0,1.0,242.0,1,0.49370821081554417,0.0
689,689,-0.3638851616320582,-0.4,1,369.0,887.0,1.0,904.0,1,0.11756041043807719,0.0
690,690,0.7269792588041326,0.7,0,465.0,958.0,0.0,227.0,1,0.9609612591970308,0.0
691,691,0.38885255412744235,0.4,0,474.0,713.0,0.0,453.0,1,0.014699523274119941,0.0
692,692,-0.6445124852188202,-0.6,1,296.0,532.0,1.0,392.0,1,0.44969399085764306,0.0
693,693,0.16728265048913227,0.2,0,411.0,593.0,1.0,516.0,0,0.2337701691397548,0.0
694,694,0.921978316751972,0.9,0,275.0,636.0,0.0,229.0,1,0.08778345516558805,0.0
695,695,0.27802726511476794,0.3,0,288.0,675.0,0.0,427.0,1,0.8569650539072978,0.0
696,696,-0.17507259464976244,-0.2,1,284.0,830.0,1.0,326.0,1,0.07452888642731026,0.0
697,697,0.376457008230354,0.4,0,267.0,628.0,0.0,315.0,1,0.6595922037722587,0.0
698,698,0.27029565750189555,0.3,0,279.0,642.0,0.0,389.0,1,0.9809780505456452,0.0
699,699,0.3353888643596492,0.3,0,402.0,879.0,0.0,169.0,1,0.4699321431336656,0.0
700,700,0.5171240459407234,0.5,0,482.0,593.0,0.0,335.0,1,0.21232631714490646,0.0
701,701,0.25297551186229095,0.3,0,338.0,927.0,0.0,185.0,1,0.8110756442892125,0.0
702,702,0.12045681582708356,0.1,0,268.0,675.0,0.0,407.0,1,0.3575215302280834,0.0
703,703,0.09765444543959667,0.1,0,463.0,528.0,0.0,379.0,1,0.6976284017437926,0.0
704,704,0.9162219243981151,0.9,0,490.0,737.0,0.0,203.0,1,0.5843168882516667,0.0
705,705,-0.44378188422147535,-0.4,1,315.0,543.0,1.0,232.0,1,0.5967461735987705,0.0
706,706,-0.3462541027049395,-0.3,1,456.0,776.0,1.0,238.0,1,0.8738210760103176,0.0
707,707,-0.7264833695780397,-0.7,1,354.0,852.0,1.0,234.0,1,0.7502673887228234,0.0
708,708,-0.731438095369034,-0.7,1,372.0,963.0,1.0,235.0,1,0.43547835717690064,0.0
709,709,-0.8171725334712334,-0.8,1,267.0,981.0,1.0,192.0,1,0.6452850030151804,0.0
710,710,-0.9441078439970008,-0.9,1,294.0,696.0,1.0,250.0,1,0.1054170030656586,0.0
711,711,0.5733033650122692,0.6,0,321.0,725.0,0.0,424.0,1,0.7044268371124963,0.0
712,712,0.6788800470782237,0.7,0,360.0,638.0,0.0,182.0,1,0.7920125709883081,0.0
713,713,-0.4202465450136721,-0.4,1,313.0,804.0,1.0,363.0,1,0.2199672540168418,0.0
714,714,-0.3146530560748677,-0.3,1,333.0,947.0,1.0,340.0,1,0.8380269097512566,0.0
715,715,-0.4109952822648162,-0.4,1,450.0,522.0,1.0,398.0,1,0.40877585426342977,0.0
716,716,0.9915367484128017,1.0,0,254.0,622.0,0.0,134.0,1,0.8671498975494625,0.0
717,717,0.1971045208327984,0.2,0,253.0,708.0,0.0,529.0,1,0.47163909270980287,0.0
718,718,0.7970907233320759,0.8,0,260.0,811.0,0.0,269.0,1,0.6715371174117358,0.0
719,719,-0.4236408550688784,-0.4,1,447.0,723.0,1.0,190.0,1,0.6473092327774189,0.0
720,720,0.9749259340758683,1.0,0,444.0,565.0,0.0,301.0,1,0.1383027983710089,0.0
721,721,-0.15212959224769396,-0.2,1,412.0,617.0,1.0,581.0,1,0.9650558211756198,0.0
722,722,-0.027606822814355114,-0.0,1,262.0,908.0,1.0,370.0,1,0.11763373962878043,0.0
723,723,0.34507031978102676,0.3,0,456.0,976.0,0.0,278.0,1,0.9485725710226253,0.0
724,724,-0.6897831989835563,-0.7,1,474.0,969.0,1.0,367.0,1,0.22018812213304506,0.0
725,725,-0.4379447850677298,-0.4,1,422.0,570.0,1.0,218.0,1,0.7021653304837834,0.0
726,726,0.4063033574093746,0.4,0,337.0,876.0,0.0,347.0,1,0.5135054193877789,0.0
727,727,-0.00570146209963629,-0.0,1,321.0,804.0,1.0,545.0,1,0.9596301334808401,0.0
728,728,0.23115715136522352,0.2,0,334.0,518.0,0.0,988.0,1,0.8766918727735296,0.0
729,729,0.23066498255032997,0.2,0,355.0,717.0,0.0,1098.0,1,0.18532116890941142,0.0
730,730,0.6432640781349659,0.6,0,350.0,946.0,0.0,214.0,1,0.07004855887321626,0.0
731,731,0.602968228851164,0.6,0,294.0,721.0,0.0,265.0,1,0.16834369600215815,0.0
732,732,0.13818049253080722,0.1,0,372.0,560.0,0.0,1408.0,1,0.0075235483857449825,0.0
733,733,-0.1292261409392501,-0.1,1,262.0,894.0,1.0,974.0,1,0.23576884508792895,0.0
734,734,0.21970511773571744,0.2,0,382.0,967.0,0.0,581.0,1,0.7355668773856833,0.0
735,735,-0.3074443340994859,-0.3,1,366.0,570.0,1.0,434.0,1,0.9077480410790061,0.0
736,736,0.44309205847316036,0.4,0,371.0,603.0,0.0,376.0,1,0.07640269710491143,0.0
737,737,-0.010933117290594874,-0.0,1,352.0,592.0,0.0,1016.0,0,0.39465067106217533,0.0
738,738,0.22031532702809442,0.2,0,465.0,805.0,0.0,330.0,1,0.26551557487218846,0.0
739,739,0.9656690102136432,1.0,0,400.0,512.0,0.0,258.0,1,0.36040047800930264,0.0
740,740,-0.4521941421722233,-0.5,1,368.0,642.0,1.0,520.0,1,0.03892575150037825,0.0
741,741,-0.13696938530901925,-0.1,1,326.0,719.0,0.0,565.0,0,0.547167244432827,0.0
742,742,0.0027533796108714093,0.0,0,463.0,713.0,1.0,494.0,0,0.3914427901270604,0.0
743,743,-0.01313266745995656,-0.0,1,331.0,794.0,1.0,525.0,1,0.6762675158757425,0.0
744,744,-0.38315829155088266,-0.4,1,311.0,984.0,1.0,265.0,1,0.9933435124974815,0.0
745,745,-0.530376002494976,-0.5,1,250.0,584.0,1.0,386.0,1,0.06398381376577345,0.0
746,746,0.6587945778331961,0.7,0,458.0,733.0,0.0,469.0,1,0.06791929964495869,0.0
747,747,0.1914298666152865,0.2,0,277.0,868.0,0.0,405.0,1,0.11925406391307414,0.0
748,748,0.8714709359463606,0.9,0,452.0,876.0,0.0,332.0,1,0.37624603599230644,0.0
749,749,-0.48627596036426524,-0.5,1,437.0,873.0,1.0,310.0,1,0.4048663937796504,0.0
750,750,-0.8347677149077672,-0.8,1,265.0,598.0,1.0,287.0,1,0.7186493622908944,0.0
751,751,0.05629780899200565,0.1,0,270.0,983.0,0.0,557.0,1,0.3166212286431419,0.0
752,752,-0.9729858173038468,-1.0,1,329.0,913.0,1.0,148.0,1,0.3077626903061893,0.0
753,753,0.7658404306690074,0.8,0,453.0,942.0,0.0,215.0,1,0.8404349914831681,0.0
754,754,-0.3707240333702009,-0.4,1,456.0,734.0,1.0,220.0,1,0.8665342575911935,0.0
755,755,0.3480624447544758,0.3,0,323.0,544.0,0.0,193.0,1,0.9760364102481424,0.0
756,756,-0.7866751149475624,-0.8,1,338.0,599.0,1.0,293.0,1,0.04697307532875772,0.0
757,757,0.07546713978070319,0.1,0,385.0,947.0,0.0,368.0,1,0.5057042146180561,0.0
758,758,0.5718644347852346,0.6,0,402.0,970.0,0.0,288.0,1,0.19367815045060754,0.0
759,759,-0.5080053269201343,-0.5,1,304.0,545.0,1.0,161.0,1,0.9839572746197982,0.0
760,760,-0.14588659866839748,-0.1,1,455.0,771.0,1.0,454.0,1,0.12793387310988957,0.0
761,761,0.12718202552261615,0.1,0,387.0,804.0,0.0,339.0,1,0.853696898576337,0.0
762,762,0.5902461661386329,0.6,0,363.0,803.0,0.0,294.0,1,0.9751463502800006,0.0
763,763,-0.44773412197881557,-0.4,1,295.0,827.0,1.0,518.0,1,0.04038023901458043,0.0
764,764,0.83496709058405,0.8,0,499.0,853.0,0.0,238.0,1,0.2728194680962762,0.0
765,765,-0.1976695527742225,-0.2,1,257.0,633.0,1.0,780.0,1,0.27369369620032424,0.0
766,766,-0.39605705610538355,-0.4,1,298.0,936.0,1.0,266.0,1,0.6611080466343986,0.0
767,767,-0.6229512437374778,-0.6,1,446.0,713.0,1.0,221.0,1,0.8167750142127291,0.0
768,768,-0.19017268499099882,-0.2,1,413.0,574.0,1.0,303.0,1,0.6635802696423296,0.0
769,769,0.629175421238259,0.6,0,310.0,733.0,0.0,357.0,1,0.22147081356730058,0.0
770,770,0.8077325488070817,0.8,0,274.0,735.0,0.0,181.0,1,0.8973420235589834,0.0
771,771,-0.6482244602160125,-0.6,1,318.0,842.0,1.0,270.0,1,0.8130309660483777,0.0
772,772,-0.6030909290005548,-0.6,1,387.0,889.0,1.0,184.0,1,0.9756566244581505,0.0
773,773,-0.293723322043173,-0.3,1,266.0,593.0,1.0,571.0,1,0.8432813516700853,0.0
774,774,-0.16715901052364424,-0.2,1,481.0,518.0,1.0,441.0,1,0.5610752151778521,0.0
775,775,0.08423090778654996,0.1,0,375.0,762.0,0.0,413.0,1,0.6690713534431666,0.0
776,776,-0.20795747177792534,-0.2,1,281.0,936.0,1.0,313.0,1,0.2375554349503306,0.0
777,777,0.42145796701274896,0.4,0,343.0,575.0,0.0,382.0,1,0.9882045423487753,0.0
778,778,0.11250777460907213,0.1,0,320.0,779.0,0.0,281.0,1,0.1740617092193495,0.0
779,779,-0.6385981797636959,-0.6,1,436.0,937.0,1.0,477.0,1,0.011035819358205856,0.0
780,780,-0.9300378436110817,-0.9,1,478.0,578.0,1.0,374.0,1,0.19886192041413642,0.0
781,781,0.3545593864459722,0.4,0,341.0,595.0,0.0,354.0,1,0.9468471401744641,0.0
782,782,0.9743948294328848,1.0,0,335.0,573.0,0.0,202.0,1,0.05323762372262575,0.0
783,783,0.49687495567393936,0.5,0,410.0,917.0,0.0,393.0,1,0.14809608553306053,0.0
784,784,-0.5334693283860215,-0.5,1,433.0,897.0,1.0,390.0,1,0.08360981942194723,0.0
785,785,-0.4792620060971047,-0.5,1,264.0,578.0,1.0,198.0,1,0.43722105342464335,0.0
786,786,-0.7201273173841287,-0.7,1,470.0,966.0,1.0,474.0,1,0.2540302107037108,0.0
787,787,-0.914153094037816,-0.9,1,433.0,791.0,1.0,346.0,1,0.21103971302852675,0.0
788,788,-0.3858061789250036,-0.4,1,399.0,647.0,1.0,324.0,1,0.4657822448365181,0.0
789,789,-0.21127212229685965,-0.2,1,347.0,922.0,1.0,341.0,1,0.4272965840415246,0.0
790,790,-0.2470896877478288,-0.2,1,369.0,509.0,1.0,502.0,1,0.4837299016868065,0.0
791,791,-0.6488147852860335,-0.6,1,459.0,739.0,1.0,192.0,1,0.4233133134888645,0.0
792,792,-0.3862502672417618,-0.4,1,355.0,839.0,1.0,316.0,1,0.4218008122495509,0.0
793,793,-0.11712089251195268,-0.1,1,266.0,741.0,1.0,1173.0,1,0.48083182777067623,0.0
794,794,-0.5100394511531257,-0.5,1,325.0,584.0,1.0,341.0,1,0.4109170731013827,0.0
795,795,0.7549665521770357,0.8,0,264.0,698.0,0.0,238.0,1,0.07341656735190516,0.0
796,796,-0.477961773995655,-0.5,1,485.0,834.0,1.0,221.0,1,0.24918177269186081,0.0
797,797,0.04499335673269789,0.0,0,344.0,676.0,0.0,530.0,1,0.5627019409029185,0.0
798,798,0.4298319533441084,0.4,0,255.0,600.0,0.0,315.0,1,0.6166735980353021,0.0
799,799,-0.32309138280339345,-0.3,1,274.0,920.0,1.0,436.0,1,0.5144604368555651,0.0
800,800,0.6219103184644628,0.6,0,451.0,620.0,0.0,259.0,1,0.997887169347274,0.0
801,801,-0.5406690489367765,-0.5,1,465.0,778.0,1.0,227.0,1,0.9136998230581402,0.0
802,802,-0.5495664527269815,-0.5,1,282.0,970.0,1.0,298.0,1,0.5074509692185745,0.0
803,803,0.7632849572828464,0.8,0,372.0,628.0,0.0,160.0,1,0.8349275729093553,0.0
804,804,0.1853975567742725,0.2,0,344.0,607.0,0.0,1659.0,1,0.03125521882073101,0.0
805,805,-0.25127353252805773,-0.3,1,290.0,638.0,1.0,392.0,1,0.41391122126505575,0.0
806,806,0.9255177980372542,0.9,0,429.0,973.0,0.0,208.0,1,0.26828222058417983,0.0
807,807,0.7336946795645851,0.7,0,475.0,674.0,0.0,161.0,1,0.2646498635479021,0.0
808,808,-0.5796297430489177,-0.6,1,277.0,879.0,1.0,314.0,1,0.7103212993257583,0.0
809,809,-0.8035076492414719,-0.8,1,393.0,838.0,1.0,439.0,1,0.19214383303901916,0.0
810,810,0.09924920240217272,0.1,0,255.0,960.0,1.0,475.0,0,0.09534890673270302,0.0
811,811,0.3189154539614598,0.3,0,276.0,809.0,0.0,245.0,1,0.48576716156315713,0.0
812,812,-0.47331021629454306,-0.5,1,280.0,697.0,1.0,533.0,1,0.22046501839837696,0.0
813,813,0.737097932586446,0.7,0,394.0,632.0,0.0,184.0,1,0.5565610893528671,0.0
814,814,-0.2905554224800042,-0.3,1,282.0,504.0,1.0,414.0,1,0.20808444126934766,0.0
815,815,0.06129040710215139,0.1,0,466.0,891.0,0.0,783.0,1,0.4669021251016151,0.0
816,816,-0.17807223149143758,-0.2,1,309.0,747.0,1.0,834.0,1,0.9195349080760497,0.0
817,817,0.7604433539479065,0.8,0,447.0,921.0,0.0,212.0,1,0.6458605141137519,0.0
818,818,0.393375866724865,0.4,0,374.0,928.0,0.0,288.0,1,0.7774243777473657,0.0
819,819,-0.6458040772113682,-0.6,1,370.0,954.0,1.0,176.0,1,0.6159040389374267,0.0
820,820,-0.3968652796392447,-0.4,1,444.0,757.0,1.0,359.0,1,0.2758902952208001,0.0
821,821,-0.6196040259687481,-0.6,1,470.0,929.0,1.0,251.0,1,0.7825821950780234,0.0
822,822,-0.36104958761941663,-0.4,1,252.0,842.0,1.0,886.0,1,0.04191615107812119,0.0
823,823,0.6573767212142041,0.7,0,386.0,753.0,0.0,651.0,1,0.007356319952837698,0.0
824,824,0.5277191868461792,0.5,0,354.0,929.0,0.0,197.0,1,0.26268537355526045,0.0
825,825,-0.03603972848640313,-0.0,1,393.0,966.0,1.0,1181.0,1,0.24201911805487641,0.0
826,826,0.03931717703493676,0.0,0,456.0,861.0,0.0,263.0,1,0.2654794650805963,0.0
827,827,-0.7076667954382287,-0.7,1,320.0,656.0,1.0,214.0,1,0.7634915486628391,0.0
828,828,-0.49197266140978746,-0.5,1,481.0,862.0,1.0,317.0,1,0.7878662227830101,0.0
829,829,0.6796925400952285,0.7,0,436.0,984.0,0.0,200.0,1,0.3826073712741378,0.0
830,830,0.4268376834647618,0.4,0,310.0,537.0,0.0,163.0,1,0.9300958647722328,0.0
831,831,-0.3036862282332202,-0.3,1,357.0,702.0,1.0,351.0,1,0.2743731160243732,0.0
832,832,0.9945656025345682,1.0,0,412.0,936.0,0.0,162.0,1,0.7756866116311729,0.0
833,833,0.5876708055503832,0.6,0,251.0,985.0,0.0,284.0,1,0.04717064451247632,0.0
834,834,0.8340645102828985,0.8,0,332.0,602.0,0.0,226.0,1,0.31736116648661505,0.0
835,835,0.33390498889268927,0.3,0,420.0,671.0,0.0,249.0,1,0.9091763032628679,0.0
836,836,0.9084668623227121,0.9,0,418.0,569.0,0.0,333.0,1,0.16046227909446564,0.0
837,837,-0.6919553937136214,-0.7,1,367.0,593.0,1.0,210.0,1,0.8521152085898341,0.0
838,838,0.7352450717879828,0.7,0,392.0,596.0,0.0,132.0,1,0.859165991210043,0.0
839,839,-0.8053467137862438,-0.8,1,317.0,749.0,1.0,164.0,1,0.7451770933093402,0.0
840,840,-0.49115879859560607,-0.5,1,470.0,525.0,1.0,215.0,1,0.5416881356466298,0.0
841,841,-0.27758029626110026,-0.3,1,402.0,801.0,1.0,1287.0,1,0.03684347225644713,0.0
842,842,0.8530359653613109,0.9,0,334.0,597.0,0.0,149.0,1,0.7527923180192032,0.0
843,843,0.12285658472078809,0.1,0,393.0,933.0,1.0,304.0,0,0.8341568485867673,0.0
844,844,0.64723352114251,0.6,0,461.0,757.0,0.0,422.0,1,0.9435948663570175,0.0
845,845,0.7124980086071744,0.7,0,264.0,557.0,0.0,229.0,1,0.43043656656240614,0.0
846,846,0.49188563453451484,0.5,0,493.0,596.0,0.0,201.0,1,0.7768843529895191,0.0
847,847,-0.8844638916702208,-0.9,1,271.0,679.0,1.0,210.0,1,0.49818615832749513,0.0
848,848,0.15594751017171316,0.2,0,255.0,675.0,0.0,330.0,1,0.039044929107192594,0.0
849,849,0.38352084209414383,0.4,0,441.0,757.0,0.0,1222.0,1,0.03731210082941472,0.0
850,850,-0.1829689285290803,-0.2,1,369.0,603.0,1.0,768.0,1,0.3473959781159426,0.0
851,851,0.11053787549436245,0.1,0,364.0,762.0,0.0,694.0,1,0.12045818446211098,0.0
852,852,0.5518795895406237,0.6,0,284.0,584.0,0.0,192.0,1,0.0493052505786693,0.0
853,853,0.05302014197433369,0.1,0,352.0,627.0,0.0,191.0,1,0.7930157480006248,0.0
854,854,0.1613871237393063,0.2,0,294.0,586.0,0.0,250.0,1,0.989448156380505,0.0
855,855,-0.04165705541747089,-0.0,1,471.0,768.0,1.0,1011.0,1,0.2900599147615286,0.0
856,856,0.07854208656872697,0.1,0,277.0,835.0,1.0,348.0,0,0.27036761226367056,0.0
857,857,-0.4680115325514138,-0.5,1,349.0,874.0,1.0,257.0,1,0.5604169318021539,0.0
858,858,-0.20171750880059958,-0.2,1,368.0,617.0,1.0,985.0,1,0.1764222638984242,0.0
859,859,-0.7765791806043156,-0.8,1,378.0,666.0,1.0,386.0,1,0.36992228414231565,0.0
860,860,0.04391255073046274,0.0,0,379.0,689.0,0.0,592.0,1,0.9002306411298838,0.0
861,861,0.563895744312521,0.6,0,468.0,968.0,0.0,224.0,1,0.4556520544455427,0.0
862,862,0.20544091164449063,0.2,0,494.0,664.0,0.0,372.0,1,0.9239442426851744,0.0
863,863,-0.9063785194880523,-0.9,1,375.0,591.0,1.0,164.0,1,0.6842300244051059,0.0
864,864,-0.36545646139367993,-0.4,1,454.0,517.0,1.0,229.0,1,0.7045117291802103,0.0
865,865,-0.9937080565506218,-1.0,1,315.0,808.0,1.0,197.0,1,0.9137034443424568,0.0
866,866,-0.25216016171567057,-0.3,1,266.0,767.0,1.0,667.0,1,0.45639351782433724,0.0
867,867,-0.6729347171787532,-0.7,1,412.0,895.0,1.0,363.0,1,0.14926414207118022,0.0
868,868,-0.035920825313956684,-0.0,1,414.0,612.0,1.0,794.0,1,0.5072740904937019,0.0
869,869,-0.9866183934629087,-1.0,1,414.0,501.0,1.0,225.0,1,0.5211077739116714,0.0
870,870,-0.013667802625368486,-0.0,1,305.0,581.0,1.0,544.0,1,0.06782131794226987,0.0
871,871,-0.09297602122936865,-0.1,1,432.0,564.0,1.0,634.0,1,0.4764999294888701,0.0
872,872,0.06447546925066372,0.1,0,308.0,543.0,1.0,589.0,0,0.45617274550991227,0.0
873,873,0.32549657203616666,0.3,0,453.0,887.0,0.0,300.0,1,0.46006258341694417,0.0
874,874,0.6938846595878745,0.7,0,256.0,720.0,0.0,174.0,1,0.5902719709198669,0.0
875,875,-0.4285216946816044,-0.4,1,447.0,650.0,1.0,243.0,1,0.7659459016095873,0.0
876,876,0.3243597263466962,0.3,0,437.0,926.0,0.0,437.0,1,0.2318609584553185,0.0
877,877,-0.12510951560249683,-0.1,1,416.0,810.0,1.0,664.0,1,0.18838756246046795,0.0
878,878,0.381870800040609,0.4,0,332.0,752.0,0.0,386.0,1,0.5771532538896567,0.0
879,879,0.011307292628492283,0.0,0,457.0,663.0,0.0,340.0,1,0.5082899086241083,0.0
880,880,-0.5771248241312255,-0.6,1,478.0,777.0,1.0,335.0,1,0.14038803697508007,0.0
881,881,-0.9124525982629725,-0.9,1,309.0,962.0,1.0,229.0,1,0.49404935136275274,0.0
882,882,0.8070110102978021,0.8,0,477.0,911.0,0.0,172.0,1,0.8626479313235392,0.0
883,883,0.4150092014978213,0.4,0,351.0,526.0,0.0,183.0,1,0.9797564071847746,0.0
884,884,0.09338954961477741,0.1,0,278.0,834.0,1.0,698.0,0,0.521596429463612,0.0
885,885,0.1545549079584445,0.2,0,328.0,576.0,0.0,216.0,1,0.40379736419350654,0.0
886,886,0.8609414895296732,0.9,0,338.0,878.0,0.0,214.0,1,0.578000412729961,0.0
887,887,0.3170506151752106,0.3,0,283.0,789.0,0.0,238.0,1,0.2931649392252257,0.0
888,888,0.765460244281543,0.8,0,388.0,812.0,0.0,300.0,1,0.19717497393328054,0.0
889,889,-0.6466456672462506,-0.6,1,286.0,544.0,1.0,220.0,1,0.9957214179117732,0.0
890,890,-0.7758570661706667,-0.8,1,417.0,612.0,1.0,511.0,1,0.07476243312204034,0.0
891,891,-0.4068870781879881,-0.4,1,263.0,828.0,1.0,199.0,1,0.24097487224728065,0.0
892,892,0.34846895209489626,0.3,0,441.0,951.0,0.0,378.0,1,0.4435134191484601,0.0
893,893,-0.32833251795651797,-0.3,1,478.0,549.0,1.0,663.0,1,0.9263041601896733,0.0
894,894,-0.15041051788824933,-0.2,1,272.0,669.0,1.0,269.0,1,0.7666385942782508,0.0
895,895,0.7104195076471451,0.7,0,488.0,617.0,0.0,305.0,1,0.1438548590544375,0.0
896,896,-0.1266756802458915,-0.1,1,294.0,712.0,1.0,354.0,1,0.9678401980026193,0.0
897,897,0.6967863201228452,0.7,0,379.0,755.0,0.0,376.0,1,0.14603222993665277,0.0
898,898,0.5952222024017704,0.6,0,261.0,697.0,0.0,252.0,1,0.3508186286350399,0.0
899,899,-0.47721674216970156,-0.5,1,377.0,688.0,1.0,245.0,1,0.6944038568666396,0.0
900,900,0.5657158068553323,0.6,0,377.0,697.0,0.0,166.0,1,0.6967233995455114,0.0
901,901,-0.5161314748205368,-0.5,1,297.0,688.0,1.0,285.0,1,0.969858917897259,0.0
902,902,-0.7599302107401102,-0.8,1,262.0,963.0,1.0,415.0,1,0.03308950427443935,0.0
903,903,-0.9027050577153348,-0.9,1,404.0,565.0,1.0,271.0,1,0.07545123988252178,0.0
904,904,0.7790188013037085,0.8,0,318.0,734.0,0.0,298.0,1,0.6356810773758395,0.0
905,905,-0.5130835282840416,-0.5,1,404.0,783.0,1.0,303.0,1,0.2596576376872842,0.0
906,906,0.10043692707410545,0.1,0,310.0,845.0,0.0,275.0,1,0.7403542335661102,0.0
907,907,0.7772137934078849,0.8,0,309.0,813.0,0.0,148.0,1,0.6795611445191414,0.0
908,908,0.03907358693676288,0.0,0,396.0,778.0,0.0,506.0,1,0.2885854237377835,0.0
909,909,-0.5793217677009532,-0.6,1,308.0,763.0,1.0,189.0,1,0.7327910822194882,0.0
910,910,0.2609888479615883,0.3,0,354.0,719.0,0.0,487.0,1,0.010802390566239328,0.0
911,911,-0.6675688723235342,-0.7,1,405.0,855.0,1.0,190.0,1,0.4671965565559715,0.0
912,912,0.13427264734969335,0.1,0,297.0,719.0,0.0,944.0,1,0.10932782603986602,0.0
913,913,-0.07207225100559711,-0.1,1,300.0,641.0,1.0,559.0,1,0.7863421626036307,0.0
914,914,-0.06437407748503765,-0.1,1,421.0,580.0,1.0,1049.0,1,0.6537442236435208,0.0
915,915,0.1300616556766525,0.1,0,408.0,703.0,0.0,909.0,1,0.354729044606778,0.0
916,916,-0.41474886438475544,-0.4,1,252.0,812.0,1.0,476.0,1,0.09406153088371261,0.0
917,917,0.524079014507514,0.5,0,439.0,860.0,0.0,231.0,1,0.7456540901401199,0.0
918,918,-0.7348033847937117,-0.7,1,350.0,637.0,1.0,153.0,1,0.5308544971534386,0.0
919,919,0.11740545717147977,0.1,0,357.0,717.0,0.0,486.0,1,0.4092693970004738,0.0
920,920,0.537514647319496,0.5,0,433.0,772.0,0.0,595.0,1,0.10064600692057502,0.0
921,921,-0.7664075249712603,-0.8,1,421.0,981.0,1.0,528.0,1,0.01526445522260833,0.0
922,922,-0.22570809162760463,-0.2,1,354.0,648.0,1.0,698.0,1,0.03244395559888791,0.0
923,923,-0.04744245800052216,-0.0,1,440.0,750.0,1.0,620.0,1,0.9267104544534266,0.0
924,924,0.5239213169981487,0.5,0,471.0,573.0,0.0,186.0,1,0.7412972023880219,0.0
925,925,0.37795228982387696,0.4,0,415.0,934.0,0.0,421.0,1,0.21575140860373165,0.0
926,926,-0.03948672902678885,-0.0,1,307.0,597.0,1.0,536.0,1,0.655349385273793,0.0
927,927,0.4665174052579131,0.5,0,272.0,965.0,0.0,263.0,1,0.176795641204886,0.0
928,928,0.6095319415080285,0.6,0,365.0,624.0,0.0,241.0,1,0.5259813682647382,0.0
929,929,-0.3209975807267351,-0.3,1,400.0,792.0,1.0,508.0,1,0.1879477839845951,0.0
930,930,-0.3191091033748501,-0.3,1,480.0,839.0,1.0,421.0,1,0.44841623042295475,0.0
931,931,0.7023107690679917,0.7,0,491.0,917.0,0.0,282.0,1,0.4589839340164187,0.0
932,932,-0.8443293608586819,-0.8,1,281.0,805.0,1.0,394.0,1,0.1955420682870651,0.0
933,933,0.8264423466439028,0.8,0,354.0,909.0,0.0,207.0,1,0.9697204378923631,0.0
934,934,-0.637694050722299,-0.6,1,444.0,870.0,1.0,306.0,1,0.5765936540446857,0.0
935,935,-0.49066719048101226,-0.5,1,376.0,913.0,1.0,351.0,1,0.4833546980033324,0.0
936,936,-0.022113371234660395,-0.0,1,312.0,569.0,0.0,1139.0,0,0.14205007041664952,0.0
937,937,-0.4209874208435531,-0.4,1,303.0,986.0,1.0,381.0,1,0.3800212994315272,0.0
938,938,-0.8878273827543652,-0.9,1,412.0,960.0,1.0,218.0,1,0.5523166202734705,0.0
939,939,0.18758879020474195,0.2,0,281.0,702.0,0.0,517.0,1,0.5948802696854263,0.0
940,940,-0.876406144984321,-0.9,1,408.0,960.0,1.0,222.0,1,0.5770016772030212,0.0
941,941,-0.41209067647799325,-0.4,1,346.0,984.0,1.0,330.0,1,0.8318966611171378,0.0
942,942,-0.578687875468965,-0.6,1,423.0,871.0,1.0,406.0,1,0.06629681712305147,0.0
943,943,-0.8754799932844552,-0.9,1,494.0,845.0,1.0,211.0,1,0.7247738090347366,0.0
944,944,-0.18683171813998123,-0.2,1,450.0,821.0,1.0,289.0,1,0.5940792935909214,0.0
945,945,-0.46112279408543944,-0.5,1,305.0,952.0,1.0,733.0,1,0.13465193795201724,0.0
946,946,-0.6561580471057802,-0.7,1,315.0,811.0,1.0,334.0,1,0.030542625856787686,0.0
947,947,-0.46062713222868035,-0.5,1,395.0,973.0,1.0,322.0,1,0.13953321480687653,0.0
948,948,0.898870549331092,0.9,0,405.0,588.0,0.0,147.0,1,0.6239934933111816,0.0
949,949,0.14652393995631408,0.1,0,286.0,614.0,0.0,430.0,1,0.7051195397937764,0.0
950,950,0.5328783799802155,0.5,0,493.0,995.0,0.0,202.0,1,0.90310565188633,0.0
951,951,-0.4369360844958954,-0.4,1,294.0,956.0,1.0,890.0,1,0.0032801914596942705,0.0
952,952,-0.4061471686073981,-0.4,1,351.0,676.0,1.0,253.0,1,0.4562330211443967,0.0
953,953,0.7259768391370098,0.7,0,450.0,615.0,0.0,195.0,1,0.0886899370418529,0.0
954,954,0.12900181960609025,0.1,0,499.0,532.0,1.0,349.0,0,0.6331123560369688,0.0
955,955,0.8691266191324676,0.9,0,310.0,806.0,0.0,244.0,1,0.3752651366553965,0.0
956,956,0.9112504061328466,0.9,0,459.0,973.0,0.0,188.0,1,0.8272005004162888,0.0
957,957,-0.06900831786459949,-0.1,1,382.0,666.0,1.0,572.0,1,0.2553495185273462,0.0
958,958,0.22446322680094943,0.2,0,382.0,672.0,0.0,116.0,1,0.4363044461046406,0.0
959,959,-0.14005204822957662,-0.1,1,306.0,776.0,0.0,688.0,0,0.29219793853032594,0.0
960,960,-0.3121050951685662,-0.3,1,416.0,820.0,1.0,454.0,1,0.11671222486521993,0.0
961,961,0.1045254295381004,0.1,0,403.0,501.0,0.0,196.0,1,0.7864842091517117,0.0
962,962,0.14080204589759182,0.1,0,267.0,829.0,0.0,194.0,1,0.6051190185928852,0.0
963,963,0.7623482780400466,0.8,0,300.0,512.0,0.0,198.0,1,0.28887859096417623,0.0
964,964,-0.9890572525193182,-1.0,1,256.0,508.0,1.0,136.0,1,0.8906568825594219,0.0
965,965,0.976648369922253,1.0,0,368.0,769.0,0.0,173.0,1,0.4139151181823111,0.0
966,966,0.6085972906121753,0.6,0,445.0,782.0,0.0,363.0,1,0.11940874618965247,0.0
967,967,0.7999693444722653,0.8,0,268.0,719.0,0.0,163.0,1,0.41379824031945145,0.0
968,968,-0.2263743352190668,-0.2,1,437.0,969.0,1.0,194.0,1,0.9954825195992764,0.0
969,969,0.1741706106819012,0.2,0,340.0,979.0,0.0,491.0,1,0.7021038291941873,0.0
970,970,0.8648755433164501,0.9,0,335.0,534.0,0.0,171.0,1,0.9932540892826207,0.0
971,971,-0.3237555638693703,-0.3,1,294.0,890.0,1.0,376.0,1,0.1157348667065391,0.0
972,972,0.0342792732047521,0.0,0,367.0,877.0,0.0,566.0,1,0.8936260516997463,0.0
973,973,-0.11974973724305626,-0.1,1,383.0,980.0,1.0,487.0,1,0.3809803442789498,0.0
974,974,-0.40085788885710594,-0.4,1,318.0,937.0,1.0,265.0,1,0.6936017073526797,0.0
975,975,-0.02191688597340624,-0.0,1,389.0,567.0,1.0,394.0,1,0.48441072331845636,0.0
976,976,-0.29374815689121325,-0.3,1,402.0,796.0,1.0,432.0,1,0.8343585881422,0.0
977,977,0.5696148270982697,0.6,0,343.0,561.0,0.0,166.0,1,0.6166144906359674,0.0
978,978,0.5804729172230596,0.6,0,425.0,998.0,0.0,287.0,1,0.6525507156569729,0.0
979,979,0.12288822811097377,0.1,0,258.0,745.0,0.0,747.0,1,0.3921209772926143,0.0
980,980,-0.2800530433941202,-0.3,1,270.0,513.0,1.0,267.0,1,0.7018778543081214,0.0
981,981,-0.9832431145410334,-1.0,1,412.0,819.0,1.0,429.0,1,0.03500963415487168,0.0
982,982,0.4684196137399057,0.5,0,442.0,555.0,0.0,333.0,1,0.6951775233425,0.0
983,983,-0.3205705587611196,-0.3,1,331.0,689.0,1.0,280.0,1,0.6305678233557652,0.0
984,984,-0.6881366229198767,-0.7,1,433.0,976.0,1.0,161.0,1,0.5905135257094741,0.0
985,985,-0.060394179542394344,-0.1,1,499.0,836.0,1.0,985.0,1,0.9878246398036821,0.0
986,986,-0.8906947537834804,-0.9,1,432.0,921.0,1.0,167.0,1,0.4668453872426349,0.0
987,987,-0.518805066899013,-0.5,1,474.0,775.0,1.0,461.0,1,0.46359481249491097,0.0
988,988,0.80282732924099,0.8,0,403.0,700.0,0.0,187.0,1,0.19525724838286873,0.0
989,989,0.07811130376430642,0.1,0,343.0,686.0,0.0,551.0,1,0.3245321805245289,0.0
990,990,-0.16158683231434523,-0.2,1,455.0,553.0,1.0,522.0,1,0.040276830132266794,0.0
991,991,-0.9706571337223695,-1.0,1,296.0,936.0,1.0,248.0,1,0.16821538801733993,0.0
992,992,0.9225993187525978,0.9,0,456.0,900.0,0.0,244.0,1,0.739978984046949,0.0
993,993,0.02529505063766968,0.0,0,317.0,853.0,1.0,380.0,0,0.7367120506671887,0.0
994,994,0.3820196616147664,0.4,0,400.0,644.0,0.0,1066.0,1,0.09290241151367973,0.0
995,995,0.9170085914913295,0.9,0,479.0,511.0,0.0,130.0,1,0.9377023356439071,0.0
996,996,0.5697701532205712,0.6,0,304.0,940.0,0.0,466.0,1,0.2980180933881751,0.0
997,997,0.32649085689788326,0.3,0,268.0,700.0,0.0,282.0,1,0.07249636398587833,0.0
998,998,0.12074959937738372,0.1,0,424.0,635.0,1.0,271.0,0,0.7363948085332022,0.0
999,999,-0.8756254116131186,-0.9,1,374.0,813.0,1.0,173.0,1,0.5146775136591825,0.0
1000,1000,0.9577277536046722,1.0,0,346.0,592.0,0.0,202.0,1,0.61966109224884,0.0
1001,1001,0.06261697443581737,0.1,0,384.0,763.0,0.0,223.0,1,0.7231154795655914,0.0
1002,1002,0.6792676428378688,0.7,0,486.0,814.0,0.0,220.0,1,0.6381053001711934,0.0
1003,1003,-0.09858706505540815,-0.1,1,362.0,596.0,1.0,992.0,1,0.8176881195663691,0.0
1004,1004,0.6397840594298494,0.6,0,320.0,588.0,0.0,312.0,1,0.11584457042687069,0.0
1005,1005,0.07387522364151478,0.1,0,400.0,973.0,0.0,627.0,1,0.1743532364157926,0.0
1006,1006,-0.88226258437786,-0.9,1,320.0,679.0,1.0,251.0,1,0.2657878846773648,0.0
1007,1007,-0.2131745776991132,-0.2,1,390.0,627.0,1.0,423.0,1,0.5556498996323621,0.0
1008,1008,0.5655300636972431,0.6,0,468.0,731.0,0.0,191.0,1,0.3170629091555912,0.0
1009,1009,0.3936796255904409,0.4,0,350.0,949.0,0.0,251.0,1,0.7190529832606971,0.0
1010,1010,-0.9203701032602019,-0.9,1,324.0,816.0,1.0,160.0,1,0.941266930860241,0.0
1011,1011,-0.20745937624785116,-0.2,1,397.0,911.0,1.0,362.0,1,0.5398285397135771,0.0
1012,1012,0.28660347897396754,0.3,0,433.0,723.0,0.0,414.0,1,0.3658187027182216,0.0
1013,1013,0.08591864829778073,0.1,0,399.0,897.0,0.0,304.0,1,0.11375623526294154,0.0
1014,1014,-0.9799698303948043,-1.0,1,261.0,688.0,1.0,371.0,1,0.5393446912580435,0.0
1015,1015,-0.4754745016567765,-0.5,1,393.0,619.0,1.0,228.0,1,0.730214427795652,0.0
1016,1016,0.07475131590188377,0.1,0,441.0,990.0,0.0,669.0,1,0.2492233525666917,0.0
1017,1017,-0.6527876854289363,-0.7,1,313.0,632.0,1.0,175.0,1,0.9294328134476102,0.0
1018,1018,0.8214222824622388,0.8,0,307.0,809.0,0.0,174.0,1,0.9563988613511681,0.0
1019,1019,-0.22186523175490258,-0.2,1,347.0,525.0,1.0,378.0,1,0.4863654087296998,0.0
1020,1020,0.39554059020123544,0.4,0,334.0,632.0,0.0,394.0,1,0.5996560751968704,0.0
1021,1021,-0.9300249499237412,-0.9,1,359.0,867.0,1.0,374.0,1,0.30269564981853525,0.0
1022,1022,-0.04512813755573841,-0.0,1,442.0,607.0,0.0,221.0,0,0.8157524938791156,0.0
1023,1023,0.9179420142107744,0.9,0,308.0,900.0,0.0,182.0,1,0.4836464476428928,0.0
1024,1024,0.12891513939027832,0.1,0,418.0,700.0,1.0,262.0,0,0.4724529402866997,0.0
1025,1025,0.4983831163847965,0.5,0,428.0,872.0,0.0,150.0,1,0.21260809149413162,0.0
1026,1026,-0.7072583155248997,-0.7,1,402.0,844.0,1.0,204.0,1,0.6986731316289264,0.0
1027,1027,-0.339307871658604,-0.3,1,490.0,803.0,1.0,667.0,1,0.04102145216619102,0.0
1028,1028,0.6076372601758318,0.6,0,316.0,852.0,0.0,302.0,1,0.27465204162085854,0.0
1029,1029,0.1643562110292094,0.2,0,441.0,538.0,0.0,521.0,1,0.7897316417321024,0.0
1030,1030,-0.4978862679731728,-0.5,1,496.0,655.0,1.0,359.0,1,0.3415727581496909,0.0
1031,1031,-0.2742416909349641,-0.3,1,376.0,856.0,1.0,438.0,1,0.11812592221410578,0.0
1032,1032,0.9260332249553329,0.9,0,261.0,805.0,0.0,224.0,1,0.0405429619233586,0.0
1033,1033,0.7060110780207098,0.7,0,287.0,516.0,0.0,217.0,1,0.9216881209604133,0.0
1034,1034,0.6587005472125422,0.7,0,288.0,922.0,0.0,200.0,1,0.8509949144552755,0.0
1035,1035,0.9514822513827395,1.0,0,423.0,501.0,0.0,186.0,1,0.27987834336343764,0.0
1036,1036,-0.5953116914335241,-0.6,1,404.0,604.0,1.0,522.0,1,0.02891131865016805,0.0
1037,1037,0.8206285235558091,0.8,0,428.0,820.0,0.0,372.0,1,0.04289566045359927,0.0
1038,1038,0.5627861766670597,0.6,0,261.0,804.0,0.0,225.0,1,0.0022850559246442304,0.0
1039,1039,-0.6898104553532924,-0.7,1,429.0,919.0,1.0,282.0,1,0.24976711978810462,0.0
1040,1040,-0.4475336048801277,-0.4,1,443.0,581.0,1.0,516.0,1,0.3926657246934667,0.0
1041,1041,0.9259529638996145,0.9,0,414.0,637.0,0.0,209.0,1,0.5460020876970357,0.0
1042,1042,-0.18403935391450688,-0.2,1,462.0,514.0,1.0,494.0,1,0.6404204176181869,0.0
1043,1043,0.946368991213123,0.9,0,400.0,933.0,0.0,257.0,1,0.6272119128374583,0.0
1044,1044,-0.665490603416866,-0.7,1,417.0,803.0,1.0,290.0,1,0.6160202018283971,0.0
1045,1045,0.8954495015733919,0.9,0,345.0,520.0,0.0,165.0,1,0.4707436624383745,0.0
1046,1046,-0.9261134286329231,-0.9,1,461.0,717.0,1.0,232.0,1,0.2698885865744306,0.0
1047,1047,0.17550089052796114,0.2,0,436.0,659.0,0.0,275.0,1,0.1534699319157805,0.0
1048,1048,-0.6151435353040509,-0.6,1,298.0,776.0,1.0,226.0,1,0.434864475313527,0.0
1049,1049,0.34913335518482125,0.3,0,394.0,626.0,0.0,550.0,1,0.08594699669830841,0.0
1050,1050,0.7767250143708342,0.8,0,406.0,751.0,0.0,163.0,1,0.8217773930195003,0.0
1051,1051,0.18548131112567967,0.2,0,296.0,782.0,0.0,1302.0,1,0.03499838723504989,0.0
1052,1052,-0.21593794362697838,-0.2,1,286.0,625.0,1.0,299.0,1,0.5517592274459397,0.0
1053,1053,0.15159616477075,0.2,0,394.0,917.0,0.0,289.0,1,0.8682531778222181,0.0
1054,1054,-0.3838487702655695,-0.4,1,424.0,771.0,1.0,505.0,1,0.7775708201995539,0.0
1055,1055,-0.667567563227228,-0.7,1,296.0,702.0,1.0,272.0,1,0.28221305983304745,0.0
1056,1056,-0.03187617555452538,-0.0,1,406.0,795.0,0.0,359.0,0,0.9128102076133481,0.0
1057,1057,0.9809422117541629,1.0,0,364.0,534.0,0.0,162.0,1,0.6388524001135409,0.0
1058,1058,-0.9326195516404547,-0.9,1,471.0,826.0,1.0,223.0,1,0.7825644243644999,0.0
1059,1059,0.9537498126264741,1.0,0,300.0,760.0,0.0,280.0,1,0.13489519064560207,0.0
1060,1060,-0.8005856385803096,-0.8,1,402.0,739.0,1.0,369.0,1,0.41249167611859316,0.0
1061,1061,-0.9254648798615288,-0.9,1,425.0,528.0,1.0,187.0,1,0.9612578894127272,0.0
1062,1062,0.7084600791238462,0.7,0,431.0,557.0,0.0,342.0,1,0.30605792892801154,0.0
1063,1063,-0.6308511742390892,-0.6,1,277.0,692.0,1.0,311.0,1,0.8821745110881729,0.0
1064,1064,-0.8287954997954892,-0.8,1,301.0,976.0,1.0,233.0,1,0.9359907309631372,0.0
1065,1065,0.6430189821039098,0.6,0,444.0,572.0,0.0,294.0,1,0.24709479394519251,0.0
1066,1066,0.5118925404975325,0.5,0,299.0,535.0,0.0,326.0,1,0.5466059904826397,0.0
1067,1067,0.18612434204932993,0.2,0,438.0,790.0,0.0,382.0,1,0.6025857823962986,0.0
1068,1068,0.02373179362184219,0.0,0,427.0,588.0,0.0,435.0,1,0.4215710433923592,0.0
1069,1069,0.643080348428297,0.6,0,407.0,537.0,0.0,236.0,1,0.19782446767950568,0.0
1070,1070,-0.09489792398266172,-0.1,1,279.0,683.0,1.0,698.0,1,0.0902876062271254,0.0
1071,1071,0.07339544740647153,0.1,0,499.0,640.0,0.0,311.0,1,0.4919415785138772,0.0
1072,1072,0.7470962422576786,0.7,0,301.0,615.0,0.0,174.0,1,0.43344734293701526,0.0
1073,1073,-0.8570180919836583,-0.9,1,295.0,734.0,1.0,201.0,1,0.6200697154167598,0.0
1074,1074,0.4548465596808744,0.5,0,489.0,724.0,0.0,167.0,1,0.8200506366237724,0.0
1075,1075,-0.9296738811073177,-0.9,1,450.0,629.0,1.0,241.0,1,0.7244611225649424,0.0
1076,1076,0.3052498763863243,0.3,0,454.0,755.0,0.0,401.0,1,0.8185499732255413,0.0
1077,1077,-0.021221736645849143,-0.0,1,431.0,510.0,1.0,619.0,1,0.6614172573874724,0.0
1078,1078,-0.9724526584726902,-1.0,1,362.0,874.0,1.0,184.0,1,0.4097852507074279,0.0
1079,1079,0.3762236557774554,0.4,0,391.0,929.0,0.0,270.0,1,0.2292690928020341,0.0
1080,1080,0.2403203221732102,0.2,0,394.0,625.0,0.0,241.0,1,0.8837498522255558,0.0
1081,1081,0.022897058357488786,0.0,0,465.0,510.0,0.0,275.0,1,0.9419756107271731,0.0
1082,1082,-0.018580397721546182,-0.0,1,393.0,752.0,1.0,275.0,1,0.08499168944552371,0.0
1083,1083,-0.39236493545138207,-0.4,1,373.0,737.0,1.0,350.0,1,0.6406287367663923,0.0
1084,1084,-0.4327992620219483,-0.4,1,467.0,731.0,1.0,402.0,1,0.15010089433478235,0.0
1085,1085,-0.55567994362293,-0.6,1,375.0,783.0,1.0,522.0,1,0.01075075541030579,0.0
1086,1086,-0.5921993056686372,-0.6,1,379.0,661.0,1.0,220.0,1,0.6334293367609365,0.0
1087,1087,-0.3146807794789086,-0.3,1,492.0,940.0,1.0,168.0,1,0.914446866788172,0.0
1088,1088,0.68161965819753,0.7,0,411.0,625.0,0.0,254.0,1,0.8528295759257701,0.0
1089,1089,-0.4974457428985777,-0.5,1,285.0,912.0,1.0,163.0,1,0.7802370570379106,0.0
1090,1090,-0.7622243140742928,-0.8,1,325.0,896.0,1.0,229.0,1,0.9406448018296144,0.0
1091,1091,-0.9985539663098568,-1.0,1,325.0,919.0,1.0,256.0,1,0.043711863592396094,0.0
1092,1092,0.17038800970443746,0.2,0,334.0,583.0,0.0,233.0,1,0.5281702497797828,0.0
1093,1093,0.40949643350886866,0.4,0,310.0,961.0,0.0,369.0,1,0.47913773457963516,0.0
1094,1094,-0.6599481100632514,-0.7,1,270.0,974.0,1.0,266.0,1,0.5688985541949196,0.0
1095,1095,0.6288135884040515,0.6,0,324.0,636.0,0.0,290.0,1,0.9849058805996208,0.0
1096,1096,0.30080068722890085,0.3,0,317.0,761.0,0.0,232.0,1,0.4536839039610904,0.0
1097,1097,-0.8689611960831596,-0.9,1,477.0,871.0,1.0,162.0,1,0.7327371268316492,0.0
1098,1098,-0.6662033240968126,-0.7,1,416.0,946.0,1.0,268.0,1,0.5949833712987046,0.0
1099,1099,-0.8394640370468747,-0.8,1,447.0,839.0,1.0,204.0,1,0.11841520186163379,0.0
1100,1100,0.36109528492439114,0.4,0,318.0,621.0,0.0,221.0,1,0.925125188397584,0.0
1101,1101,-0.5073736714065877,-0.5,1,367.0,566.0,1.0,217.0,1,0.7942221607243034,0.0
1102,1102,-0.9057279209672806,-0.9,1,473.0,614.0,1.0,193.0,1,0.7464515772598515,0.0
1103,1103,0.7373053458547989,0.7,0,377.0,796.0,0.0,117.0,1,0.7901014339015966,0.0
1104,1104,-0.5420452827217603,-0.5,1,331.0,867.0,1.0,382.0,1,0.0764028276641151,0.0
1105,1105,-0.13407497497220633,-0.1,1,372.0,667.0,0.0,801.0,0,0.10684611611626527,0.0
1106,1106,-0.44786209805253296,-0.4,1,290.0,839.0,1.0,321.0,1,0.3773505717048794,0.0
1107,1107,0.8295074653339312,0.8,0,352.0,717.0,0.0,181.0,1,0.804075309899635,0.0
1108,1108,-0.5911697838576304,-0.6,1,280.0,972.0,1.0,178.0,1,0.9964905565618267,0.0
1109,1109,0.014510014422333128,0.0,0,271.0,871.0,0.0,2268.0,1,0.052418484420964195,0.0
1110,1110,0.42748215272886947,0.4,0,480.0,580.0,0.0,280.0,1,0.15941642304757186,0.0
1111,1111,0.04950508526254582,0.0,0,490.0,680.0,0.0,760.0,1,0.2795815548549593,0.0
1112,1112,-0.9599549966646068,-1.0,1,466.0,550.0,1.0,164.0,1,0.7571729032108195,0.0
1113,1113,-0.16350794033792715,-0.2,1,294.0,882.0,1.0,394.0,1,0.8401904183533898,0.0
1114,1114,0.9849708986616057,1.0,0,374.0,955.0,0.0,211.0,1,0.8625293313635571,0.0
1115,1115,0.3322817360915169,0.3,0,307.0,611.0,0.0,282.0,1,0.0063556949743429625,0.0
1116,1116,0.4250578124466473,0.4,0,376.0,739.0,0.0,325.0,1,0.8844670063811552,0.0
1117,1117,0.4406640757717579,0.4,0,270.0,988.0,0.0,362.0,1,0.29722906770868995,0.0
1118,1118,-0.660816901222635,-0.7,1,284.0,565.0,1.0,541.0,1,0.13029713897774353,0.0
1119,1119,0.4683688452434964,0.5,0,356.0,768.0,0.0,356.0,1,0.191567068832042,0.0
1120,1120,-0.17568839059641306,-0.2,1,374.0,566.0,1.0,890.0,1,0.2527297647827095,0.0
1121,1121,-0.42267361503837475,-0.4,1,285.0,876.0,1.0,169.0,1,0.895434792707157,0.0
1122,1122,0.8332296204574032,0.8,0,351.0,620.0,0.0,269.0,1,0.4043801476598846,0.0
1123,1123,-0.005574265665464706,-0.0,1,373.0,600.0,0.0,1127.0,0,0.39929118660098395,0.0
1124,1124,-0.007884098066137657,-0.0,1,280.0,900.0,0.0,2110.0,0,0.028929170224467837,0.0
1125,1125,-0.8160598765176523,-0.8,1,253.0,579.0,1.0,218.0,1,0.3020453569254068,0.0
1126,1126,-0.17660367121019593,-0.2,1,373.0,818.0,1.0,719.0,1,0.6390355790656153,0.0
1127,1127,0.04368040050811195,0.0,0,424.0,888.0,1.0,1028.0,0,0.7898795784522433,0.0
1128,1128,-0.18058571341173635,-0.2,1,415.0,983.0,1.0,412.0,1,0.5779074943941722,0.0
1129,1129,0.6463923535756564,0.6,0,479.0,940.0,0.0,151.0,1,0.8767534916395437,0.0
1130,1130,0.6850827198678411,0.7,0,390.0,770.0,0.0,270.0,1,0.7536862878804951,0.0
1131,1131,0.39414736264919936,0.4,0,446.0,708.0,0.0,236.0,1,0.4916825559698186,0.0
1132,1132,0.22776088638496805,0.2,0,420.0,960.0,0.0,270.0,1,0.969289736784185,0.0
1133,1133,-0.67701572091005,-0.7,1,358.0,718.0,1.0,164.0,1,0.7296115495757054,0.0
1134,1134,0.009505025277531942,0.0,0,354.0,794.0,0.0,582.0,1,0.40102873247691584,0.0
1135,1135,0.2622925381153485,0.3,0,378.0,528.0,0.0,474.0,1,0.37174737358635035,0.0
1136,1136,0.8735815600496217,0.9,0,343.0,857.0,0.0,280.0,1,0.6870345656944066,0.0
1137,1137,-0.7516153511380863,-0.8,1,292.0,859.0,1.0,329.0,1,0.2890964388196974,0.0
1138,1138,-0.870041134698887,-0.9,1,368.0,627.0,1.0,295.0,1,0.9309023866270218,0.0
1139,1139,-0.6686072781439731,-0.7,1,329.0,720.0,1.0,201.0,1,0.85405749158473,0.0
1140,1140,0.3187337999303268,0.3,0,388.0,644.0,0.0,398.0,1,0.3457607709046566,0.0
1141,1141,-0.6062207717434824,-0.6,1,285.0,770.0,1.0,395.0,1,0.3726719082962059,0.0
1142,1142,0.9474114512255287,0.9,0,477.0,557.0,0.0,286.0,1,0.1383062836515936,0.0
1143,1143,-0.5565224603280698,-0.6,1,432.0,842.0,1.0,186.0,1,0.23751253716683285,0.0
1144,1144,-0.26058669075584695,-0.3,1,259.0,976.0,1.0,465.0,1,0.8212983221267011,0.0
1145,1145,-0.7528647861474813,-0.8,1,480.0,991.0,1.0,209.0,1,0.6410084870336148,0.0
1146,1146,0.4111473975755804,0.4,0,280.0,932.0,0.0,328.0,1,0.07653242390713488,0.0
1147,1147,-0.8543384408808288,-0.9,1,483.0,932.0,1.0,215.0,1,0.9622734032282962,0.0
1148,1148,-0.27004422794183336,-0.3,1,456.0,720.0,1.0,674.0,1,0.7238357333678151,0.0
1149,1149,-0.8193790536750909,-0.8,1,322.0,533.0,1.0,365.0,1,0.3873998801600853,0.0
1150,1150,-0.8709744605051155,-0.9,1,308.0,575.0,1.0,227.0,1,0.5907087063418207,0.0
1151,1151,-0.398027237991343,-0.4,1,379.0,944.0,1.0,77.0,1,0.973777033346697,0.0
1152,1152,-0.42599246541381497,-0.4,1,477.0,675.0,1.0,418.0,1,0.46726655731800115,0.0
1153,1153,0.040703748122535854,0.0,0,335.0,650.0,0.0,185.0,1,0.8257078211051745,0.0
1154,1154,0.032769275169256096,0.0,0,290.0,720.0,0.0,540.0,1,0.3322240563817104,0.0
1155,1155,0.4731964722492401,0.5,0,375.0,919.0,0.0,256.0,1,0.9320722116441479,0.0
1156,1156,-0.26898469436135164,-0.3,1,431.0,919.0,1.0,250.0,1,0.6957294361125718,0.0
1157,1157,0.530461442298543,0.5,0,454.0,945.0,0.0,301.0,1,0.43883895765668923,0.0
1158,1158,-0.8094409309610802,-0.8,1,322.0,862.0,1.0,136.0,1,0.7019827206867406,0.0
1159,1159,-0.36825902078901596,-0.4,1,409.0,517.0,1.0,184.0,1,0.8158907491302251,0.0
1160,1160,-0.679584221422423,-0.7,1,348.0,807.0,1.0,205.0,1,0.8816690624242584,0.0
1161,1161,-0.7313734108141436,-0.7,1,487.0,854.0,1.0,369.0,1,0.3265327571920513,0.0
1162,1162,0.2102599061622561,0.2,0,344.0,628.0,0.0,278.0,1,0.9718874939084511,0.0
1163,1163,-0.7411810991651357,-0.7,1,256.0,524.0,1.0,220.0,1,0.7086953509534244,0.0
1164,1164,0.7874325840497742,0.8,0,409.0,929.0,0.0,192.0,1,0.5374988045031307,0.0
1165,1165,-0.37441452410395293,-0.4,1,420.0,501.0,1.0,369.0,1,0.22348302193877279,0.0
1166,1166,-0.1640556163563791,-0.2,1,402.0,782.0,1.0,236.0,1,0.7258757031267005,0.0
1167,1167,-0.3962270615723915,-0.4,1,449.0,531.0,1.0,370.0,1,0.12916671337008578,0.0
1168,1168,0.9006401919277625,0.9,0,382.0,642.0,0.0,206.0,1,0.6951972451377043,0.0
1169,1169,0.7370989916677,0.7,0,258.0,887.0,0.0,165.0,1,0.5038272488576617,0.0
1170,1170,-0.8670172752931125,-0.9,1,454.0,606.0,1.0,350.0,1,0.23404349038242656,0.0
1171,1171,-0.9296518745602809,-0.9,1,468.0,766.0,1.0,176.0,1,0.7096851426685945,0.0
1172,1172,0.2154686711699072,0.2,0,364.0,631.0,0.0,425.0,1,0.22261239512546827,0.0
1173,1173,-0.1022937421637804,-0.1,1,257.0,928.0,1.0,645.0,1,0.1323604674533685,0.0
1174,1174,0.21452530489147725,0.2,0,424.0,572.0,0.0,514.0,1,0.25218845673688495,0.0
1175,1175,0.5307628506037023,0.5,0,335.0,852.0,0.0,153.0,1,0.8521496926265189,0.0
1176,1176,0.9574096791580728,1.0,0,323.0,825.0,0.0,202.0,1,0.282774343546222,0.0
1177,1177,-0.8621643664403382,-0.9,1,480.0,549.0,1.0,201.0,1,0.5561578340554212,0.0
1178,1178,0.9614705893321771,1.0,0,401.0,566.0,0.0,153.0,1,0.6747181235290127,0.0
1179,1179,0.0720607228103145,0.1,0,456.0,789.0,1.0,255.0,0,0.8469855841938387,0.0
1180,1180,-0.9186462390830306,-0.9,1,345.0,599.0,1.0,256.0,1,0.42265443630370514,0.0
1181,1181,0.8667175592728296,0.9,0,462.0,818.0,0.0,230.0,1,0.5384526233032377,0.0
1182,1182,0.24612883644676997,0.2,0,397.0,809.0,0.0,564.0,1,0.6845971183114204,0.0
1183,1183,-0.787157253690838,-0.8,1,316.0,570.0,1.0,294.0,1,0.5681580345385594,0.0
1184,1184,0.8254578458114676,0.8,0,447.0,835.0,0.0,198.0,1,0.7822690510648793,0.0
1185,1185,0.35495792228382417,0.4,0,296.0,706.0,0.0,508.0,1,0.03807685071795197,0.0
1186,1186,-0.5183792360256085,-0.5,1,438.0,680.0,1.0,342.0,1,0.8280606954925981,0.0
1187,1187,0.4562835468897477,0.5,0,309.0,618.0,0.0,343.0,1,0.5084417649590202,0.0
1188,1188,-0.6413786148659331,-0.6,1,322.0,840.0,1.0,348.0,1,0.3997484882785757,0.0
1189,1189,-0.8970164983555573,-0.9,1,270.0,980.0,1.0,200.0,1,0.06855662733050094,0.0
1190,1190,-0.8410336579860092,-0.8,1,357.0,916.0,1.0,387.0,1,0.457498300439776,0.0
1191,1191,0.8229140376239583,0.8,0,447.0,868.0,0.0,145.0,1,0.9124549985207421,0.0
1192,1192,0.5028056476319758,0.5,0,452.0,779.0,0.0,299.0,1,0.599925951757225,0.0
1193,1193,-0.8528712824818647,-0.9,1,367.0,648.0,1.0,245.0,1,0.9440920855570668,0.0
1194,1194,0.8890702544745259,0.9,0,492.0,686.0,0.0,212.0,1,0.44338264988149845,0.0
1195,1195,0.40016499873615263,0.4,0,454.0,593.0,0.0,233.0,1,0.6193603736965674,0.0
1196,1196,0.5064818013368593,0.5,0,444.0,974.0,0.0,392.0,1,0.9037204799320246,0.0
1197,1197,0.42369065296776,0.4,0,367.0,749.0,0.0,244.0,1,0.6234714612288638,0.0
1198,1198,-0.23034290340215247,-0.2,1,273.0,888.0,1.0,449.0,1,0.8883998330699244,0.0
1199,1199,0.9866091097982232,1.0,0,364.0,773.0,0.0,143.0,1,0.7806567880605021,0.0
1200,1200,-0.11368328791817417,-0.1,1,332.0,600.0,1.0,1528.0,1,0.04395545525080691,0.0
1201,1201,-0.6275301419073105,-0.6,1,382.0,953.0,1.0,315.0,1,0.8958421188642047,0.0
1202,1202,-0.6853174248456211,-0.7,1,371.0,756.0,1.0,263.0,1,0.533662629830405,0.0
1203,1203,-0.8897364345556174,-0.9,1,385.0,741.0,1.0,304.0,1,0.3198363024562324,0.0
1204,1204,-0.10194047260003569,-0.1,1,434.0,956.0,1.0,1540.0,1,0.5192322189886082,0.0
1205,1205,0.6819450767457302,0.7,0,311.0,726.0,0.0,283.0,1,0.06754531980877754,0.0
1206,1206,0.2061990807244498,0.2,0,296.0,809.0,0.0,285.0,1,0.4518562369283613,0.0
1207,1207,0.23428190163155116,0.2,0,499.0,970.0,0.0,281.0,1,0.7426112657743313,0.0
1208,1208,0.6800238669489314,0.7,0,353.0,654.0,0.0,293.0,1,0.3441458919145375,0.0
1209,1209,-0.2132078190615725,-0.2,1,463.0,912.0,0.0,915.0,0,0.16332008131908993,0.0
1210,1210,0.015139096058203183,0.0,0,318.0,532.0,0.0,520.0,1,0.2755726967871909,0.0
1211,1211,-0.3717227523342008,-0.4,1,348.0,588.0,1.0,334.0,1,0.4975318255280785,0.0
1212,1212,-0.6643231673629861,-0.7,1,272.0,979.0,1.0,329.0,1,0.8045427684651173,0.0
1213,1213,0.10797801039209864,0.1,0,336.0,887.0,0.0,797.0,1,0.5181838312198515,0.0
1214,1214,0.1886817302254853,0.2,0,462.0,649.0,0.0,1369.0,1,0.26680909870517555,0.0
1215,1215,-0.9767589580143554,-1.0,1,454.0,628.0,1.0,198.0,1,0.49101760485876056,0.0
1216,1216,0.259901065936448,0.3,0,257.0,874.0,0.0,479.0,1,0.9904114461230642,0.0
1217,1217,-0.8945499921013509,-0.9,1,350.0,934.0,1.0,306.0,1,0.3948892535974683,0.0
1218,1218,-0.5430439721493892,-0.5,1,331.0,506.0,1.0,483.0,1,0.017492456264581513,0.0
1219,1219,-0.7309542001046332,-0.7,1,252.0,646.0,1.0,202.0,1,0.21477064796560952,0.0
1220,1220,0.7903508896479376,0.8,0,475.0,662.0,0.0,383.0,1,0.232689234411933,0.0
