,trial,coherence,coherence_bin,correct_side,target_onset,checker_onset,decision,decision_time,correct_decision,g0,gSlope
0,0,0.9239676203281566,0.9,0,389.0,501.0,0.0,180.0,1,0.5392235776248876,0.0
1,1,-0.15906579706930102,-0.2,1,285.0,645.0,1.0,490.0,1,0.5861806243019585,0.0
2,2,0.2581132520900138,0.3,0,462.0,584.0,0.0,494.0,1,0.6154675312612844,0.0
3,3,-0.14246927932858822,-0.1,1,437.0,557.0,1.0,216.0,1,0.9583383115574425,0.0
4,4,-0.4274517103314015,-0.4,1,310.0,637.0,1.0,233.0,1,0.7717816480023006,0.0
5,5,-0.9902826336540833,-1.0,1,377.0,899.0,1.0,184.0,1,1.0856331868008802,0.0
6,6,-0.5805372223094496,-0.6,1,349.0,734.0,1.0,97.0,1,0.9624971549214747,0.0
7,7,0.4847364925059652,0.5,0,477.0,614.0,0.0,249.0,1,0.517102270154854,0.0
8,8,-0.9511157044808916,-1.0,1,414.0,966.0,1.0,190.0,1,1.033530757827613,0.0
9,9,0.1919749831598685,0.2,0,294.0,859.0,0.0,307.0,1,0.7842103579153733,0.0
10,10,-0.6756069953961665,-0.7,1,349.0,621.0,1.0,210.0,1,0.6354891708936726,0.0
11,11,0.3501629694275499,0.4,0,258.0,845.0,0.0,297.0,1,1.196227237593112,0.0
12,12,0.16240223053080705,0.2,0,257.0,560.0,0.0,343.0,1,1.0289081501182298,0.0
13,13,-0.07180457147718,-0.1,1,258.0,961.0,1.0,361.0,1,0.5365402814600186,0.0
14,14,0.7381658418926438,0.7,0,277.0,515.0,0.0,178.0,1,0.8509954651731727,0.0
15,15,-0.4560578244460054,-0.5,1,354.0,809.0,1.0,237.0,1,0.5916709304069157,0.0
16,16,-0.5038884899872362,-0.5,1,409.0,981.0,1.0,180.0,1,1.0447688061522016,0.0
17,17,-0.041889687050854496,-0.0,1,446.0,974.0,1.0,360.0,1,0.9303414462993989,0.0
18,18,-0.6088280262348387,-0.6,1,423.0,778.0,1.0,159.0,1,0.6266746939791297,0.0
19,19,0.38369496919084933,0.4,0,499.0,704.0,0.0,447.0,1,1.0880719634779084,0.0
20,20,0.3029739260095823,0.3,0,253.0,942.0,0.0,345.0,1,0.6984928472477241,0.0
21,21,0.6491456682388068,0.6,0,444.0,544.0,0.0,202.0,1,0.984907978797063,0.0
22,22,-0.14767472137522253,-0.1,1,349.0,515.0,1.0,516.0,1,1.1701376882030123,0.0
23,23,-0.9388955229595888,-0.9,1,289.0,548.0,1.0,173.0,1,1.1067755903899386,0.0
24,24,0.0914150611219362,0.1,0,450.0,861.0,0.0,449.0,1,0.7582909372614534,0.0
25,25,-0.1695299876467531,-0.2,1,469.0,810.0,1.0,301.0,1,0.6839984745364129,0.0
26,26,0.7191849114909672,0.7,0,345.0,803.0,0.0,172.0,1,0.6550390260100376,0.0
27,27,-0.5282488741033373,-0.5,1,445.0,568.0,1.0,137.0,1,1.0399665378363496,0.0
28,28,0.8411860766702921,0.8,0,344.0,975.0,0.0,281.0,1,0.6677359564523314,0.0
29,29,-0.7051682558163834,-0.7,1,432.0,964.0,1.0,174.0,1,0.9472165116432169,0.0
30,30,-0.7886887985617335,-0.8,1,350.0,864.0,1.0,206.0,1,0.6119010770596294,0.0
31,31,0.6353088701459488,0.6,0,491.0,919.0,0.0,220.0,1,0.8891689467549635,0.0
32,32,0.009835293384345745,0.0,0,414.0,657.0,0.0,339.0,1,1.1959192935635603,0.0
33,33,0.04893822769339584,0.0,0,459.0,630.0,0.0,321.0,1,0.9326403026333524,0.0
34,34,-0.7065207576085615,-0.7,1,372.0,977.0,1.0,191.0,1,0.6486923592648101,0.0
35,35,-0.6075783821323264,-0.6,1,493.0,532.0,1.0,165.0,1,0.6691332768462683,0.0
36,36,-0.9608567281320859,-1.0,1,427.0,986.0,1.0,207.0,1,0.8663022544742968,0.0
37,37,-0.12228581163681884,-0.1,1,333.0,812.0,0.0,325.0,0,0.68630632546102,0.0
38,38,0.715169850993093,0.7,0,305.0,569.0,0.0,166.0,1,0.7433619299592549,0.0
39,39,-0.7878202331750745,-0.8,1,397.0,946.0,1.0,157.0,1,0.8509359613925859,0.0
40,40,0.7815007939364795,0.8,0,447.0,725.0,0.0,198.0,1,1.2284521669863926,0.0
41,41,-0.35678355237438564,-0.4,1,479.0,743.0,1.0,318.0,1,0.6392325221842519,0.0
42,42,0.9341431119422565,0.9,0,468.0,784.0,0.0,148.0,1,1.1323084183854462,0.0
43,43,-0.5143451219345596,-0.5,1,302.0,888.0,1.0,200.0,1,0.9338803672286073,0.0
44,44,0.750780853546634,0.8,0,499.0,651.0,0.0,250.0,1,1.0994581100654253,0.0
45,45,-0.0066679093091359665,-0.0,1,442.0,682.0,0.0,266.0,0,0.7153985045973204,0.0
46,46,-0.81783497445383,-0.8,1,329.0,681.0,1.0,170.0,1,1.025924427287631,0.0
47,47,0.5495627875116433,0.5,0,253.0,926.0,0.0,231.0,1,1.2212667134251605,0.0
48,48,-0.053393199316511764,-0.1,1,454.0,612.0,1.0,264.0,1,0.9888599394713163,0.0
49,49,-0.025313242233710342,-0.0,1,426.0,934.0,1.0,230.0,1,0.6315385059188044,0.0
50,50,-0.01704889120825248,-0.0,1,468.0,827.0,1.0,295.0,1,0.7233095829998721,0.0
51,51,-0.23176921656041438,-0.2,1,290.0,894.0,1.0,366.0,1,0.5740669549867926,0.0
52,52,0.7459722954054138,0.7,0,468.0,876.0,0.0,336.0,1,0.6158200491743709,0.0
53,53,-0.05580032490896447,-0.1,1,367.0,786.0,1.0,377.0,1,0.9554954850547827,0.0
54,54,-0.05796150383691301,-0.1,1,302.0,785.0,0.0,473.0,0,0.6298356504972611,0.0
55,55,0.26332600731093647,0.3,0,402.0,989.0,0.0,289.0,1,1.0095692673653454,0.0
56,56,-0.2674786570456831,-0.3,1,277.0,923.0,1.0,220.0,1,1.0263270286583008,0.0
57,57,0.32293451888494307,0.3,0,329.0,754.0,0.0,337.0,1,0.9355919735271232,0.0
58,58,-0.3521310035344505,-0.4,1,402.0,917.0,1.0,191.0,1,0.8510307991009425,0.0
59,59,-0.6709763846484036,-0.7,1,436.0,563.0,1.0,151.0,1,0.8517555178288052,0.0
60,60,-0.7081760481224186,-0.7,1,419.0,620.0,1.0,231.0,1,0.7627624233182292,0.0
61,61,0.14559261115961863,0.1,0,277.0,605.0,0.0,308.0,1,0.7004928482141815,0.0
62,62,-0.9096885919959248,-0.9,1,414.0,606.0,1.0,260.0,1,1.0844020823549885,0.0
63,63,-0.25694591415258916,-0.3,1,372.0,689.0,1.0,219.0,1,0.9709178819943431,0.0
64,64,0.6515852354844083,0.7,0,382.0,728.0,0.0,200.0,1,0.8966086418642075,0.0
65,65,0.7671644537865043,0.8,0,492.0,764.0,0.0,114.0,1,1.11699345151475,0.0
66,66,-0.32429558291246097,-0.3,1,365.0,714.0,1.0,181.0,1,0.7584808238843571,0.0
67,67,0.13413531553690516,0.1,0,389.0,577.0,0.0,214.0,1,1.225063413901911,0.0
68,68,-0.021243266483496503,-0.0,1,315.0,819.0,1.0,276.0,1,0.9445459065992845,0.0
69,69,0.5029283276086074,0.5,0,280.0,772.0,1.0,228.0,0,0.8488442964104466,0.0
70,70,-0.47201882054762256,-0.5,1,489.0,528.0,1.0,243.0,1,0.8302483295009276,0.0
71,71,0.016047371106366226,0.0,0,335.0,967.0,0.0,668.0,1,0.6362205211104262,0.0
72,72,0.9034006095480893,0.9,0,491.0,569.0,0.0,200.0,1,0.7506592371951967,0.0
73,73,0.8806163049831239,0.9,0,250.0,675.0,0.0,315.0,1,1.20760451946312,0.0
74,74,0.6632230812823159,0.7,0,481.0,991.0,0.0,288.0,1,1.0108745598377347,0.0
75,75,0.3625286368035301,0.4,0,484.0,890.0,0.0,336.0,1,0.8491005420164796,0.0
76,76,-0.505814213886647,-0.5,1,469.0,910.0,1.0,161.0,1,0.9160802832949916,0.0
77,77,-0.4202050444784733,-0.4,1,349.0,831.0,1.0,320.0,1,0.7259962064763023,0.0
78,78,0.8859176034397531,0.9,0,269.0,617.0,0.0,314.0,1,0.5272810405910539,0.0
79,79,0.7919070953490288,0.8,0,373.0,521.0,0.0,206.0,1,1.12289541690977,0.0
80,80,0.3964612158990575,0.4,0,434.0,828.0,0.0,308.0,1,0.5549494750051561,0.0
81,81,0.2501797076533323,0.3,0,394.0,975.0,0.0,271.0,1,0.7020756181307776,0.0
82,82,0.12709141401764867,0.1,0,463.0,555.0,1.0,282.0,0,1.2098104466835007,0.0
83,83,0.43617272514919425,0.4,0,453.0,584.0,0.0,323.0,1,0.6611232987719238,0.0
84,84,-0.2842061352395706,-0.3,1,309.0,929.0,1.0,162.0,1,1.1244306777592816,0.0
85,85,-0.632035949531683,-0.6,1,470.0,932.0,1.0,158.0,1,1.1647962047066285,0.0
86,86,-0.4168378304927429,-0.4,1,409.0,828.0,1.0,203.0,1,0.6419796800597293,0.0
87,87,-0.25787571526883135,-0.3,1,256.0,554.0,1.0,450.0,1,1.1555269670573187,0.0
88,88,-0.22960910112578214,-0.2,1,436.0,733.0,1.0,351.0,1,1.1299149264034856,0.0
89,89,-0.23507779175439802,-0.2,1,383.0,738.0,1.0,149.0,1,0.9039398127175865,0.0
90,90,-0.7256710385173009,-0.7,1,482.0,624.0,1.0,124.0,1,0.7845679084079481,0.0
91,91,-0.5568812482828849,-0.6,1,292.0,998.0,1.0,260.0,1,1.1519966669070643,0.0
92,92,0.4262863672138866,0.4,0,401.0,861.0,0.0,168.0,1,0.9307541880309298,0.0
93,93,0.3517033899812425,0.4,0,482.0,749.0,0.0,359.0,1,0.5578215209995244,0.0
94,94,0.21136830697138298,0.2,0,464.0,980.0,0.0,216.0,1,0.6865721992965931,0.0
95,95,-0.7345123457830725,-0.7,1,473.0,986.0,1.0,141.0,1,0.8659860200903066,0.0
96,96,-0.42156213713168,-0.4,1,444.0,954.0,1.0,232.0,1,0.9207548156339651,0.0
97,97,-0.2709455721546363,-0.3,1,250.0,939.0,1.0,331.0,1,1.1635759899173577,0.0
98,98,0.39737861522935813,0.4,0,435.0,559.0,0.0,266.0,1,0.7235437728098725,0.0
99,99,-0.2674689504127721,-0.3,1,286.0,763.0,1.0,211.0,1,0.91928461711738,0.0
100,100,0.8520784965048878,0.9,0,335.0,637.0,0.0,158.0,1,0.6785580009258547,0.0
101,101,0.26222756373172995,0.3,0,465.0,579.0,1.0,306.0,0,0.9434415727089159,0.0
102,102,0.6171896395548002,0.6,0,456.0,627.0,0.0,197.0,1,1.0011720666886783,0.0
103,103,0.4080622281104558,0.4,0,486.0,724.0,0.0,200.0,1,0.8717511880795392,0.0
104,104,-0.7565491334526564,-0.8,1,383.0,921.0,1.0,146.0,1,0.7699113815735626,0.0
105,105,-0.5275500072263404,-0.5,1,375.0,647.0,1.0,248.0,1,0.5459344811760228,0.0
106,106,0.5917568753562366,0.6,0,269.0,810.0,0.0,171.0,1,1.174612153193876,0.0
107,107,0.12789372429955126,0.1,0,364.0,950.0,1.0,436.0,0,0.7528899787319668,0.0
108,108,0.5948310643994483,0.6,0,339.0,573.0,0.0,178.0,1,1.0437010523210546,0.0
109,109,-0.9047162316296953,-0.9,1,489.0,747.0,1.0,164.0,1,0.6088502994021172,0.0
110,110,-0.912425493782038,-0.9,1,393.0,500.0,1.0,157.0,1,0.60252894841285,0.0
111,111,0.5335320041158451,0.5,0,295.0,851.0,0.0,194.0,1,0.6874144164760843,0.0
112,112,0.8823363325044904,0.9,0,456.0,989.0,0.0,145.0,1,0.7363610701556835,0.0
113,113,0.726065580256883,0.7,0,277.0,850.0,0.0,223.0,1,0.8144575378969598,0.0
114,114,-0.5486721949663813,-0.5,1,387.0,812.0,1.0,271.0,1,1.0024930809381771,0.0
115,115,0.7382703857293171,0.7,0,394.0,851.0,0.0,195.0,1,0.6939929696046048,0.0
116,116,0.12718809888723337,0.1,0,281.0,546.0,1.0,483.0,0,0.9278230795131372,0.0
117,117,-0.6326884500836234,-0.6,1,257.0,546.0,1.0,147.0,1,1.1234497204200933,0.0
118,118,-0.9712366755924406,-1.0,1,472.0,686.0,1.0,162.0,1,0.7566756880768392,0.0
119,119,-0.5875484386703091,-0.6,1,376.0,946.0,1.0,268.0,1,0.8930069395155571,0.0
120,120,-0.8842256418140724,-0.9,1,383.0,906.0,1.0,221.0,1,0.682090177125168,0.0
121,121,0.4757634532028814,0.5,0,377.0,869.0,0.0,204.0,1,0.8437908466136259,0.0
122,122,-0.5126457687948163,-0.5,1,434.0,810.0,1.0,106.0,1,0.7864042271037099,0.0
123,123,-0.8626539497624195,-0.9,1,334.0,557.0,1.0,129.0,1,1.0965820517337084,0.0
124,124,0.06366836375703011,0.1,0,439.0,920.0,1.0,181.0,0,1.1951097718687353,0.0
125,125,-0.5724681919300603,-0.6,1,393.0,940.0,1.0,277.0,1,0.5510399774562554,0.0
126,126,-0.7345216794646368,-0.7,1,274.0,519.0,1.0,97.0,1,1.151977755256,0.0
127,127,-0.08681038545642838,-0.1,1,411.0,844.0,0.0,305.0,0,0.753425239891014,0.0
128,128,-0.5458939271105361,-0.5,1,285.0,644.0,1.0,191.0,1,0.8273573001540409,0.0
129,129,-0.15561845682235642,-0.2,1,330.0,521.0,0.0,229.0,0,0.9227154677760303,0.0
130,130,-0.8426023974190016,-0.8,1,272.0,713.0,1.0,205.0,1,0.996076680992836,0.0
131,131,-0.6037742201610656,-0.6,1,386.0,897.0,1.0,137.0,1,1.0772206886969191,0.0
132,132,0.637583800534016,0.6,0,384.0,706.0,0.0,310.0,1,0.6428391325564751,0.0
133,133,0.9935155438206418,1.0,0,402.0,786.0,0.0,162.0,1,0.7123315307399891,0.0
134,134,0.1014879655959684,0.1,0,470.0,774.0,0.0,596.0,1,0.5825421087095669,0.0
135,135,0.5599457745631162,0.6,0,362.0,576.0,0.0,292.0,1,0.8383751450351133,0.0
136,136,-0.5827921251884098,-0.6,1,412.0,996.0,1.0,162.0,1,0.883832439433785,0.0
137,137,0.6847837614556194,0.7,0,426.0,744.0,0.0,190.0,1,1.0586822402859322,0.0
138,138,-0.6206357502261577,-0.6,1,347.0,993.0,1.0,150.0,1,1.05900471218593,0.0
139,139,0.5484008801969009,0.5,0,435.0,646.0,0.0,149.0,1,1.1023905905780709,0.0
140,140,0.6554606023188936,0.7,0,350.0,880.0,0.0,170.0,1,1.1525016754424109,0.0
141,141,-0.019686988280535722,-0.0,1,342.0,776.0,1.0,182.0,1,0.8726495056231023,0.0
142,142,-0.12294644440164704,-0.1,1,371.0,988.0,1.0,461.0,1,0.6049656000762301,0.0
143,143,-0.2934518075014132,-0.3,1,331.0,560.0,1.0,169.0,1,1.1369679418010479,0.0
144,144,-0.36494355242293364,-0.4,1,465.0,557.0,1.0,178.0,1,0.9978650755697679,0.0
145,145,-0.9631369295999854,-1.0,1,272.0,826.0,1.0,82.0,1,0.7722945042145779,0.0
146,146,-0.7420764845569789,-0.7,1,476.0,783.0,1.0,111.0,1,0.6481012772823971,0.0
147,147,0.7081207650964445,0.7,0,353.0,695.0,0.0,232.0,1,0.8928663756780091,0.0
148,148,-0.07324781529578805,-0.1,1,392.0,850.0,1.0,248.0,1,0.8306963500981254,0.0
149,149,0.03220502347727283,0.0,0,466.0,807.0,1.0,277.0,0,0.9950052446043199,0.0
150,150,-0.4228617590446291,-0.4,1,362.0,622.0,1.0,186.0,1,0.9832147482003948,0.0
151,151,0.9360089350078917,0.9,0,376.0,805.0,0.0,119.0,1,1.1969532713340474,0.0
152,152,0.3477013596962175,0.3,0,306.0,726.0,0.0,308.0,1,0.9210400348117184,0.0
153,153,-0.9902433922711629,-1.0,1,382.0,944.0,1.0,114.0,1,0.9913113689218677,0.0
154,154,-0.9251454611993819,-0.9,1,387.0,845.0,1.0,168.0,1,0.8854946966048043,0.0
155,155,-0.47594832235493656,-0.5,1,316.0,746.0,1.0,248.0,1,0.6658236731123919,0.0
156,156,0.6399542590268468,0.6,0,262.0,853.0,0.0,285.0,1,0.5609917357373275,0.0
157,157,-0.09904148433679794,-0.1,1,286.0,917.0,1.0,327.0,1,1.1724664959839575,0.0
158,158,-0.8787774724928801,-0.9,1,250.0,507.0,1.0,233.0,1,0.622799630925114,0.0
159,159,0.9704763949330331,1.0,0,360.0,767.0,0.0,203.0,1,0.7861377181462357,0.0
160,160,-0.20035166536012117,-0.2,1,497.0,944.0,1.0,199.0,1,0.9085854713083736,0.0
161,161,0.6702364662549132,0.7,0,285.0,839.0,0.0,316.0,1,0.6625966276623698,0.0
162,162,-0.002591463674522121,-0.0,1,268.0,700.0,1.0,572.0,1,0.646718188221739,0.0
163,163,0.9190307832319065,0.9,0,276.0,719.0,0.0,155.0,1,1.2155642934461457,0.0
164,164,-0.2277884137395927,-0.2,1,404.0,929.0,1.0,457.0,1,0.5133597599845008,0.0
165,165,-0.4572787382576988,-0.5,1,366.0,749.0,1.0,-605.0,1,0.8535789920956633,0.0
166,166,0.6158554617602139,0.6,0,399.0,797.0,0.0,174.0,1,1.1895782190198099,0.0
167,167,-0.47815321271057143,-0.5,1,257.0,851.0,1.0,242.0,1,0.7334436529157067,0.0
168,168,0.4806733706952586,0.5,0,330.0,974.0,0.0,226.0,1,0.6996102666215606,0.0
169,169,0.5703556171524009,0.6,0,450.0,515.0,0.0,165.0,1,1.0453295957830662,0.0
170,170,0.5619126878077965,0.6,0,343.0,924.0,0.0,123.0,1,1.133726077333875,0.0
171,171,-0.29401490752727955,-0.3,1,306.0,894.0,1.0,260.0,1,1.1572126657351534,0.0
172,172,-0.9851255134253414,-1.0,1,250.0,906.0,1.0,184.0,1,1.022307930164226,0.0
173,173,0.7759903565496731,0.8,0,420.0,913.0,0.0,137.0,1,1.0512277628890936,0.0
174,174,-0.2680036955930478,-0.3,1,474.0,565.0,1.0,251.0,1,1.214638701654833,0.0
175,175,0.7623796872869397,0.8,0,335.0,688.0,0.0,117.0,1,0.9772446405286349,0.0
176,176,-0.432292348934165,-0.4,1,291.0,895.0,1.0,274.0,1,1.137819135155132,0.0
177,177,0.8625644923810079,0.9,0,335.0,551.0,0.0,134.0,1,0.874448899711757,0.0
178,178,-0.8745956779794646,-0.9,1,364.0,874.0,1.0,192.0,1,0.7489848106454392,0.0
179,179,0.04975034413282797,0.0,0,275.0,988.0,0.0,307.0,1,1.2144956150828983,0.0
180,180,-0.24648387661607662,-0.2,1,277.0,637.0,1.0,196.0,1,0.6938966524012461,0.0
181,181,0.9568719770028158,1.0,0,272.0,547.0,0.0,291.0,1,0.505197392739505,0.0
182,182,0.8391592347670747,0.8,0,403.0,836.0,0.0,131.0,1,0.5401102024156903,0.0
183,183,-0.5920846624999698,-0.6,1,403.0,678.0,1.0,179.0,1,0.8484823969056444,0.0
184,184,0.11325375664859161,0.1,0,490.0,696.0,0.0,254.0,1,0.9762309232597632,0.0
185,185,-0.5387962157474304,-0.5,1,264.0,635.0,1.0,381.0,1,0.5304678227362576,0.0
186,186,-0.10834448018120191,-0.1,1,404.0,645.0,0.0,271.0,0,0.9202708602578417,0.0
187,187,-0.19651412627437148,-0.2,1,468.0,795.0,1.0,247.0,1,0.6622056971856243,0.0
188,188,-0.18178236708202444,-0.2,1,468.0,838.0,1.0,264.0,1,0.7126595784640283,0.0
189,189,-0.45627290156117684,-0.5,1,396.0,759.0,1.0,135.0,1,0.7797449796149275,0.0
190,190,0.7247557584375108,0.7,0,434.0,781.0,0.0,185.0,1,0.7682596137873293,0.0
191,191,-0.5995390962828866,-0.6,1,293.0,551.0,1.0,156.0,1,0.7571521923720894,0.0
192,192,-0.32520405706926314,-0.3,1,473.0,774.0,1.0,283.0,1,0.7229587154992636,0.0
193,193,-0.8614286851990964,-0.9,1,261.0,598.0,1.0,181.0,1,1.1988309310114615,0.0
194,194,-0.3663181704559453,-0.4,1,425.0,826.0,1.0,399.0,1,0.5450065906906827,0.0
195,195,0.20681464011701944,0.2,0,405.0,910.0,0.0,185.0,1,1.0100605435632022,0.0
196,196,-0.07885361837526039,-0.1,1,335.0,503.0,0.0,292.0,0,1.2150920305228916,0.0
197,197,0.6471094452549637,0.6,0,402.0,870.0,0.0,338.0,1,0.6259189090229951,0.0
198,198,0.42927294358095147,0.4,0,276.0,755.0,0.0,139.0,1,1.0805372635130812,0.0
199,199,0.8234768921129139,0.8,0,296.0,624.0,0.0,160.0,1,0.6930474346586106,0.0
200,200,0.4364715018459919,0.4,0,270.0,527.0,0.0,243.0,1,0.712457124059416,0.0
201,201,0.15208889636757772,0.2,0,296.0,713.0,0.0,641.0,1,0.7488739125783346,0.0
202,202,-0.09672709144098834,-0.1,1,462.0,803.0,1.0,245.0,1,0.8713482108243318,0.0
203,203,-0.38723395325852006,-0.4,1,305.0,508.0,1.0,247.0,1,0.9868847190579558,0.0
204,204,-0.2983825137710938,-0.3,1,279.0,794.0,1.0,347.0,1,1.0676687549195627,0.0
205,205,0.5177783416001416,0.5,0,456.0,917.0,0.0,267.0,1,0.7966855320181293,0.0
206,206,-0.1597201996125266,-0.2,1,453.0,745.0,1.0,312.0,1,0.8285814483164774,0.0
207,207,-0.9630032460390445,-1.0,1,298.0,903.0,1.0,179.0,1,0.5231689859251217,0.0
208,208,0.4219754456014806,0.4,0,435.0,608.0,0.0,197.0,1,0.6849519043086428,0.0
209,209,-0.8327299469768605,-0.8,1,450.0,768.0,1.0,172.0,1,1.1226523658131167,0.0
210,210,0.22936758490194697,0.2,0,312.0,873.0,0.0,315.0,1,0.7270090943684601,0.0
211,211,0.2281095389126051,0.2,0,353.0,983.0,1.0,244.0,0,0.7811574629094875,0.0
212,212,-0.8005966013724226,-0.8,1,458.0,572.0,1.0,270.0,1,0.8769419080771448,0.0
213,213,-0.9907428977689745,-1.0,1,459.0,690.0,1.0,171.0,1,0.7042472107943369,0.0
214,214,-0.527285416701819,-0.5,1,272.0,687.0,1.0,151.0,1,0.9062790965744565,0.0
215,215,0.7543311553077334,0.8,0,362.0,967.0,0.0,141.0,1,0.7651474763870956,0.0
216,216,0.0473431688168926,0.0,0,341.0,950.0,0.0,169.0,1,1.1521868491759504,0.0
217,217,0.9527617115663156,1.0,0,274.0,589.0,0.0,167.0,1,0.5837496856974443,0.0
218,218,0.5806404328385357,0.6,0,477.0,923.0,0.0,150.0,1,0.525205655606644,0.0
219,219,-0.6616162358502684,-0.7,1,271.0,842.0,1.0,127.0,1,1.0974981163437505,0.0
220,220,-0.36141385963671846,-0.4,1,382.0,707.0,1.0,141.0,1,1.2087812845993477,0.0
221,221,-0.9838326969056834,-1.0,1,292.0,522.0,1.0,206.0,1,0.5906051071710127,0.0
222,222,0.7965913300219281,0.8,0,401.0,644.0,0.0,255.0,1,0.6837697965481004,0.0
223,223,-0.5030452590379235,-0.5,1,375.0,645.0,1.0,210.0,1,0.7455460823089048,0.0
224,224,-0.4242593175241478,-0.4,1,313.0,718.0,1.0,319.0,1,0.7416865667041035,0.0
225,225,-0.6311653815992933,-0.6,1,271.0,566.0,1.0,273.0,1,0.6437751062732858,0.0
226,226,-0.29519399605977625,-0.3,1,429.0,756.0,1.0,125.0,1,1.1895492492075497,0.0
227,227,-0.17688961407915138,-0.2,1,414.0,997.0,1.0,219.0,1,0.7122878731407487,0.0
228,228,-0.676816688247218,-0.7,1,415.0,692.0,1.0,123.0,1,0.7294226159513976,0.0
229,229,-0.8332794772806833,-0.8,1,472.0,743.0,1.0,245.0,1,0.9438228943318698,0.0
230,230,-0.4216157572340642,-0.4,1,274.0,521.0,1.0,335.0,1,1.1762472692971788,0.0
231,231,-0.6989529507367978,-0.7,1,433.0,596.0,1.0,231.0,1,0.847296247119785,0.0
232,232,0.08936145256191819,0.1,0,396.0,771.0,1.0,303.0,0,1.0132455795585964,0.0
233,233,-0.27955631800689096,-0.3,1,445.0,840.0,1.0,435.0,1,0.9784743023776301,0.0
234,234,0.7395615247420153,0.7,0,440.0,769.0,0.0,211.0,1,0.867839113237028,0.0
235,235,-0.35284903282963076,-0.4,1,422.0,871.0,1.0,367.0,1,0.5265780416393906,0.0
236,236,-0.819309484040992,-0.8,1,491.0,545.0,1.0,204.0,1,0.6040074270168015,0.0
237,237,0.29023648208359676,0.3,0,396.0,877.0,0.0,297.0,1,1.059241919859964,0.0
238,238,0.07445974649749987,0.1,0,466.0,956.0,0.0,478.0,1,0.5392806182584776,0.0
239,239,-0.20793115748441715,-0.2,1,339.0,746.0,1.0,165.0,1,1.2220818065167187,0.0
240,240,0.8161432422843726,0.8,0,434.0,610.0,0.0,276.0,1,0.7326313863957825,0.0
241,241,0.9051558965173025,0.9,0,367.0,702.0,0.0,131.0,1,0.6336908030199393,0.0
242,242,-0.4709484890151334,-0.5,1,407.0,744.0,1.0,149.0,1,1.1205411475364064,0.0
243,243,-0.7527234514357566,-0.8,1,499.0,998.0,1.0,153.0,1,1.1832072751756377,0.0
244,244,0.0771331349874409,0.1,0,310.0,920.0,1.0,240.0,0,1.106982374854168,0.0
245,245,0.8737246260715841,0.9,0,301.0,578.0,0.0,231.0,1,0.7807296770040022,0.0
246,246,-0.49637425815582814,-0.5,1,396.0,853.0,1.0,141.0,1,0.8866627445267322,0.0
247,247,-0.2440094812053275,-0.2,1,317.0,722.0,1.0,261.0,1,0.7044733260702254,0.0
248,248,-0.2269786789581767,-0.2,1,325.0,870.0,1.0,165.0,1,1.2450217212841055,0.0
249,249,0.665718486581039,0.7,0,387.0,546.0,0.0,457.0,1,0.5076806361370356,0.0
250,250,-0.3247494475205852,-0.3,1,441.0,898.0,1.0,551.0,1,0.5674041684094825,0.0
251,251,0.698447777023222,0.7,0,333.0,960.0,0.0,197.0,1,0.8434564227774631,0.0
252,252,0.06649047453842072,0.1,0,352.0,658.0,0.0,570.0,1,0.6782254562989565,0.0
253,253,-0.4812013881005006,-0.5,1,250.0,584.0,1.0,246.0,1,0.7192651461198588,0.0
254,254,-0.8709771104032191,-0.9,1,475.0,896.0,1.0,189.0,1,0.615153160876619,0.0
255,255,-0.5182441495096786,-0.5,1,401.0,689.0,1.0,130.0,1,1.2199020845062114,0.0
256,256,0.9613392563594256,1.0,0,442.0,993.0,0.0,225.0,1,0.5696282358237006,0.0
257,257,-0.5065003811473252,-0.5,1,312.0,631.0,1.0,297.0,1,0.5127162698461616,0.0
258,258,0.7654753818844799,0.8,0,332.0,642.0,0.0,166.0,1,0.9438617070399423,0.0
259,259,0.5266504257928382,0.5,0,447.0,536.0,1.0,-403.0,0,0.9180098068646434,0.0
260,260,0.5448070923841759,0.5,0,350.0,720.0,0.0,190.0,1,0.7750844580804961,0.0
261,261,-0.40482090818740124,-0.4,1,337.0,748.0,1.0,285.0,1,0.6343493975745428,0.0
262,262,0.17415823313873413,0.2,0,380.0,606.0,0.0,194.0,1,1.2103677563469737,0.0
263,263,0.0981964755534217,0.1,0,409.0,820.0,1.0,561.0,0,0.619808995828496,0.0
264,264,0.9458544398716331,0.9,0,406.0,599.0,0.0,165.0,1,0.598564278707999,0.0
265,265,0.4728326277069701,0.5,0,416.0,639.0,0.0,175.0,1,1.0562054452876082,0.0
266,266,-0.8321595531106405,-0.8,1,482.0,992.0,1.0,166.0,1,0.7970196727244556,0.0
267,267,-0.6340851959891332,-0.6,1,380.0,903.0,1.0,177.0,1,0.6849188719118119,0.0
268,268,0.605374505387194,0.6,0,413.0,747.0,0.0,250.0,1,0.6415022270484962,0.0
269,269,-0.6033822099260449,-0.6,1,406.0,692.0,1.0,122.0,1,0.7621797268361024,0.0
270,270,-0.07890943562682073,-0.1,1,471.0,980.0,1.0,389.0,1,0.6681473007266772,0.0
271,271,-0.9229861214959381,-0.9,1,333.0,917.0,1.0,300.0,1,0.557424354282847,0.0
272,272,0.024409057028203396,0.0,0,424.0,684.0,1.0,202.0,0,1.018535095126099,0.0
273,273,-0.9921402886162358,-1.0,1,493.0,580.0,1.0,147.0,1,0.8772018579881093,0.0
274,274,-0.8854729199561175,-0.9,1,424.0,728.0,1.0,188.0,1,0.5762508614971338,0.0
275,275,0.007017662352865273,0.0,0,355.0,997.0,0.0,308.0,1,1.062106888863081,0.0
276,276,0.2602007691658448,0.3,0,430.0,926.0,0.0,204.0,1,1.2473659778501331,0.0
277,277,-0.0055432361161826815,-0.0,1,322.0,666.0,0.0,362.0,0,1.1104953588676216,0.0
278,278,0.5362671764828539,0.5,0,254.0,841.0,0.0,295.0,1,1.0775833803801074,0.0
279,279,0.22244497346985326,0.2,0,275.0,893.0,0.0,262.0,1,0.9031264761998005,0.0
280,280,-0.9311304677725123,-0.9,1,453.0,572.0,1.0,125.0,1,0.7494322919993117,0.0
281,281,-0.043986963223816344,-0.0,1,254.0,938.0,1.0,288.0,1,1.1144787260773437,0.0
282,282,-0.6905142155643722,-0.7,1,429.0,686.0,1.0,165.0,1,0.8615203047747669,0.0
283,283,0.33214999502646414,0.3,0,470.0,751.0,0.0,329.0,1,0.670222569438678,0.0
284,284,0.7652300186273873,0.8,0,470.0,561.0,0.0,119.0,1,0.9050507016662879,0.0
285,285,0.11623745636993865,0.1,0,442.0,608.0,0.0,250.0,1,0.8298461545054107,0.0
286,286,-0.28456929793694097,-0.3,1,333.0,704.0,1.0,273.0,1,0.8498420942570433,0.0
287,287,0.04310522162097019,0.0,0,280.0,623.0,0.0,337.0,1,0.7107942488454387,0.0
288,288,0.2048125179772191,0.2,0,473.0,708.0,0.0,399.0,1,1.0201362990671736,0.0
289,289,-0.388172747134095,-0.4,1,496.0,716.0,1.0,218.0,1,1.1672956589047883,0.0
290,290,-0.7486384130427512,-0.7,1,310.0,731.0,1.0,169.0,1,1.1005359552498724,0.0
291,291,-0.17901258442708823,-0.2,1,324.0,895.0,1.0,331.0,1,1.239517452542335,0.0
292,292,-0.9382892156866895,-0.9,1,389.0,653.0,1.0,198.0,1,0.5434620858739151,0.0
293,293,-0.29983379176879077,-0.3,1,342.0,783.0,1.0,255.0,1,0.6511725830717049,0.0
294,294,-0.432583686035217,-0.4,1,477.0,549.0,1.0,284.0,1,0.7251988650592173,0.0
295,295,0.8508082059566808,0.9,0,463.0,898.0,0.0,139.0,1,0.8965169396799941,0.0
296,296,-0.6670468618775833,-0.7,1,406.0,999.0,1.0,155.0,1,0.749451381845029,0.0
297,297,0.3943475045133751,0.4,0,385.0,979.0,0.0,446.0,1,0.5210370157276631,0.0
298,298,-0.29507647780264956,-0.3,1,261.0,841.0,1.0,188.0,1,0.9305980208464991,0.0
299,299,-0.9057935916457578,-0.9,1,433.0,588.0,1.0,199.0,1,0.5884710486114026,0.0
300,300,0.9065102957020452,0.9,0,298.0,660.0,0.0,242.0,1,0.9556879068133824,0.0
301,301,0.2992653527766702,0.3,0,291.0,729.0,0.0,330.0,1,0.6872361050237433,0.0
302,302,-0.22552992165665642,-0.2,1,255.0,509.0,1.0,276.0,1,0.791993215775371,0.0
303,303,0.03687165484906507,0.0,0,324.0,747.0,1.0,169.0,0,1.0956392659599192,0.0
304,304,-0.0400673166244121,-0.0,1,355.0,773.0,1.0,282.0,1,0.6093415371126437,0.0
305,305,-0.3239648734525997,-0.3,1,278.0,865.0,1.0,237.0,1,0.8569378677645769,0.0
306,306,0.7982964891375,0.8,0,349.0,783.0,0.0,108.0,1,0.9306007125349511,0.0
307,307,-0.45738933297353235,-0.5,1,314.0,756.0,1.0,260.0,1,1.1526762410265514,0.0
308,308,-0.7981316875541309,-0.8,1,442.0,656.0,1.0,152.0,1,0.9697786156491399,0.0
309,309,0.9078239228511387,0.9,0,332.0,909.0,0.0,139.0,1,1.101276222018598,0.0
310,310,0.3409455967338866,0.3,0,450.0,851.0,0.0,349.0,1,1.2237371891132114,0.0
311,311,0.2662709142600064,0.3,0,257.0,949.0,0.0,324.0,1,0.6970037590796623,0.0
312,312,-0.8518590261508001,-0.9,1,409.0,959.0,1.0,182.0,1,1.0192594824157242,0.0
313,313,-0.23031225842177694,-0.2,1,401.0,564.0,0.0,305.0,0,0.6792249543907074,0.0
314,314,-0.7185894279855496,-0.7,1,376.0,898.0,1.0,256.0,1,1.1118358916416908,0.0
315,315,-0.003356573654966777,-0.0,1,256.0,671.0,1.0,413.0,1,1.0952749901009042,0.0
316,316,0.12962600701464644,0.1,0,389.0,739.0,1.0,262.0,0,1.0952663829752762,0.0
317,317,0.4669945700099132,0.5,0,363.0,775.0,0.0,342.0,1,0.6390768833666457,0.0
318,318,-0.5232585510476149,-0.5,1,265.0,717.0,1.0,238.0,1,0.5662937325166308,0.0
319,319,0.5753347949801242,0.6,0,419.0,757.0,0.0,204.0,1,1.096106837111836,0.0
320,320,-0.07181556421634938,-0.1,1,423.0,718.0,1.0,219.0,1,0.8788105704793928,0.0
321,321,-0.9434388839051571,-0.9,1,454.0,830.0,1.0,246.0,1,0.905050389741439,0.0
322,322,-0.4571844080044729,-0.5,1,413.0,501.0,1.0,266.0,1,0.5072479132455383,0.0
323,323,-0.12258178136953624,-0.1,1,321.0,920.0,1.0,429.0,1,0.5083218095388692,0.0
324,324,-0.33095883736429244,-0.3,1,378.0,542.0,1.0,250.0,1,0.8628659353149706,0.0
325,325,-0.28337438078234034,-0.3,1,336.0,842.0,1.0,282.0,1,0.6088943640937218,0.0
326,326,-0.7188259699556145,-0.7,1,349.0,642.0,1.0,109.0,1,0.7422117177214584,0.0
327,327,0.7021030088832214,0.7,0,433.0,576.0,0.0,321.0,1,0.6105966230703723,0.0
328,328,0.41141835343445843,0.4,0,296.0,890.0,0.0,174.0,1,0.7304937936612407,0.0
329,329,-0.4983121721644961,-0.5,1,470.0,679.0,1.0,211.0,1,0.6924812085380047,0.0
330,330,0.40940728081242916,0.4,0,424.0,659.0,0.0,187.0,1,0.8173545225494838,0.0
331,331,-0.6764795590445116,-0.7,1,387.0,956.0,1.0,187.0,1,0.5965381417477058,0.0
332,332,-0.9626896390958821,-1.0,1,488.0,952.0,1.0,250.0,1,0.7300885889984082,0.0
333,333,0.4402035989972344,0.4,0,350.0,689.0,0.0,211.0,1,1.0666985837872762,0.0
334,334,-0.5544111743594735,-0.6,1,379.0,858.0,1.0,213.0,1,0.7569087625404293,0.0
335,335,-0.17922522043289835,-0.2,1,494.0,703.0,1.0,133.0,1,0.7555505914581024,0.0
336,336,0.860940189472978,0.9,0,392.0,716.0,0.0,282.0,1,1.204898388731632,0.0
337,337,-0.7481142440673019,-0.7,1,287.0,883.0,1.0,260.0,1,0.7259841018936739,0.0
338,338,-0.36934134403930075,-0.4,1,427.0,895.0,1.0,208.0,1,0.9635692310153152,0.0
339,339,0.6938791305324088,0.7,0,285.0,785.0,0.0,170.0,1,0.7504215094450485,0.0
340,340,0.6572993240537299,0.7,0,279.0,528.0,0.0,193.0,1,1.2071387501532487,0.0
341,341,-0.5831007025003225,-0.6,1,351.0,800.0,1.0,169.0,1,1.2178906271367123,0.0
342,342,-0.44919960908698897,-0.4,1,341.0,772.0,1.0,207.0,1,0.7824356001347634,0.0
343,343,-0.8670875557357764,-0.9,1,285.0,893.0,1.0,202.0,1,1.038943793044641,0.0
344,344,0.3022864164019754,0.3,0,454.0,727.0,0.0,389.0,1,0.6669884511580143,0.0
345,345,0.7459462384316939,0.7,0,424.0,582.0,0.0,294.0,1,0.5191195618970134,0.0
346,346,-0.4845590403601736,-0.5,1,253.0,705.0,1.0,192.0,1,0.9481353578898554,0.0
347,347,0.9612402209111439,1.0,0,310.0,905.0,0.0,145.0,1,1.1506559671212206,0.0
348,348,-0.47404471807657167,-0.5,1,258.0,786.0,1.0,276.0,1,1.0186273122773728,0.0
349,349,-0.14537903123157525,-0.1,1,460.0,902.0,1.0,298.0,1,1.2238183050892746,0.0
350,350,0.7074852452961531,0.7,0,330.0,626.0,0.0,224.0,1,0.6814290192869266,0.0
351,351,-0.3363136723426743,-0.3,1,479.0,760.0,1.0,301.0,1,0.7835601052124017,0.0
352,352,0.2334805564170448,0.2,0,437.0,633.0,0.0,250.0,1,0.5533091685131744,0.0
353,353,0.4273348466495752,0.4,0,365.0,924.0,0.0,291.0,1,0.6312140270115896,0.0
354,354,0.39677414432658975,0.4,0,441.0,910.0,0.0,259.0,1,0.6401003293308996,0.0
355,355,0.47737726732223584,0.5,0,448.0,816.0,0.0,186.0,1,0.8652144088637197,0.0
356,356,0.6130087684668257,0.6,0,364.0,972.0,0.0,234.0,1,0.9256847421395529,0.0
357,357,0.6351137190608838,0.6,0,407.0,535.0,0.0,158.0,1,1.0133514803660875,0.0
358,358,-0.28396634970201506,-0.3,1,441.0,940.0,1.0,209.0,1,0.8798329092055575,0.0
359,359,-0.575714694326795,-0.6,1,454.0,805.0,1.0,251.0,1,0.5546236984204679,0.0
360,360,0.6317686184225089,0.6,0,418.0,658.0,0.0,264.0,1,1.1229910389817825,0.0
361,361,0.44855839167308376,0.4,0,444.0,801.0,0.0,235.0,1,0.9193963235504783,0.0
362,362,0.7106483628262339,0.7,0,274.0,586.0,0.0,200.0,1,1.233572305257481,0.0
363,363,-0.6713214583485154,-0.7,1,439.0,836.0,1.0,125.0,1,1.0331752447705949,0.0
364,364,-0.4068008573908197,-0.4,1,445.0,567.0,1.0,278.0,1,0.7004116546781655,0.0
365,365,-0.7528941473687041,-0.8,1,454.0,566.0,1.0,220.0,1,0.729289460216912,0.0
366,366,0.7957769362865175,0.8,0,370.0,902.0,0.0,278.0,1,0.7257530767094466,0.0
367,367,-0.49330063473251573,-0.5,1,337.0,933.0,1.0,240.0,1,1.046809735987174,0.0
368,368,-0.3330546635890075,-0.3,1,318.0,660.0,1.0,222.0,1,0.898876398934044,0.0
369,369,-0.5814747761555907,-0.6,1,417.0,980.0,1.0,273.0,1,0.6441999392222258,0.0
370,370,-0.7817120320314945,-0.8,1,318.0,506.0,1.0,236.0,1,0.5173334567698166,0.0
371,371,0.652541696597944,0.7,0,461.0,763.0,0.0,156.0,1,0.6118198116015859,0.0
372,372,-0.7241562006288751,-0.7,1,360.0,846.0,1.0,134.0,1,0.782042234034956,0.0
373,373,0.9068672247361182,0.9,0,482.0,609.0,0.0,179.0,1,0.8976475026198655,0.0
374,374,-0.7360867103569098,-0.7,1,261.0,852.0,1.0,157.0,1,1.2390598110215252,0.0
375,375,-0.424581346340418,-0.4,1,479.0,809.0,1.0,172.0,1,0.9504556571436704,0.0
376,376,-0.5274960001284481,-0.5,1,474.0,746.0,1.0,110.0,1,1.097018472785669,0.0
377,377,-0.6738170993780448,-0.7,1,459.0,956.0,1.0,265.0,1,0.8645769933517643,0.0
378,378,-0.07324264786581258,-0.1,1,320.0,749.0,1.0,291.0,1,0.9206643224072053,0.0
379,379,0.9754027792098001,1.0,0,457.0,768.0,0.0,255.0,1,1.1254136022518377,0.0
380,380,-0.5944423996884496,-0.6,1,488.0,863.0,1.0,249.0,1,0.6739584728826733,0.0
381,381,0.897071507471132,0.9,0,250.0,695.0,0.0,285.0,1,1.0895996381956086,0.0
382,382,0.08191560867360215,0.1,0,498.0,533.0,0.0,249.0,1,0.9278829127237563,0.0
383,383,0.6283973303088064,0.6,0,269.0,573.0,0.0,258.0,1,1.1816907140622153,0.0
384,384,-0.6773788529016482,-0.7,1,478.0,709.0,1.0,123.0,1,1.1728927167584238,0.0
385,385,0.691351366078164,0.7,0,405.0,929.0,0.0,226.0,1,0.6862159346348058,0.0
386,386,-0.23869398810845643,-0.2,1,289.0,849.0,1.0,192.0,1,1.0140710686346999,0.0
387,387,0.7972361598541837,0.8,0,367.0,712.0,0.0,221.0,1,0.987425987962187,0.0
388,388,0.9957841732602855,1.0,0,407.0,599.0,0.0,114.0,1,0.9732197962135074,0.0
389,389,-0.3518959369230521,-0.4,1,336.0,655.0,1.0,239.0,1,1.1697987822059603,0.0
390,390,0.5861474976245304,0.6,0,257.0,871.0,0.0,162.0,1,0.8901999645891161,0.0
391,391,0.30656615803455445,0.3,0,341.0,617.0,0.0,402.0,1,0.7270155297822463,0.0
392,392,-0.8091205087536544,-0.8,1,388.0,943.0,1.0,159.0,1,0.7296040501799105,0.0
393,393,-0.44883956491088206,-0.4,1,422.0,718.0,1.0,230.0,1,1.1622653629027826,0.0
394,394,0.15054345860645357,0.2,0,488.0,632.0,1.0,340.0,0,0.6844843429422175,0.0
395,395,-0.7434773198644635,-0.7,1,285.0,696.0,1.0,209.0,1,0.5409481972209583,0.0
396,396,0.2505589970507818,0.3,0,317.0,582.0,0.0,191.0,1,0.6373277261437446,0.0
397,397,-0.7344633373754019,-0.7,1,463.0,837.0,1.0,150.0,1,0.716026065030239,0.0
398,398,-0.8798878226293267,-0.9,1,283.0,628.0,1.0,189.0,1,0.7455744420404764,0.0
399,399,-0.03642382662110988,-0.0,1,332.0,927.0,1.0,241.0,1,0.9967651258335605,0.0
400,400,0.6023242576696131,0.6,0,367.0,993.0,0.0,220.0,1,0.9754177822859632,0.0
401,401,-0.8593648316596878,-0.9,1,435.0,642.0,1.0,123.0,1,1.0411104586679591,0.0
402,402,-0.6087955450557687,-0.6,1,414.0,687.0,1.0,189.0,1,1.1522887257520376,0.0
403,403,0.47931457699179036,0.5,0,373.0,575.0,0.0,212.0,1,1.1091281563047988,0.0
404,404,0.15921277197436257,0.2,0,483.0,648.0,0.0,199.0,1,1.1574667726262262,0.0
405,405,-0.28472911487586106,-0.3,1,264.0,823.0,1.0,123.0,1,1.1071002299040247,0.0
406,406,-0.12460599497864466,-0.1,1,453.0,623.0,1.0,334.0,1,1.1304369105259497,0.0
407,407,-0.6402968322286293,-0.6,1,492.0,713.0,1.0,195.0,1,1.0084784380906977,0.0
408,408,0.7111283964723167,0.7,0,331.0,545.0,0.0,194.0,1,1.0306430659690229,0.0
409,409,-0.9642747078487455,-1.0,1,343.0,552.0,1.0,195.0,1,0.5758670199547163,0.0
410,410,-0.6691521239587346,-0.7,1,449.0,518.0,1.0,243.0,1,0.6908913016881923,0.0
411,411,0.7412353380775811,0.7,0,253.0,800.0,0.0,187.0,1,0.7283614311188307,0.0
412,412,-0.49667296411705153,-0.5,1,340.0,546.0,1.0,284.0,1,0.562242515686447,0.0
413,413,-0.7493894135830979,-0.7,1,257.0,613.0,1.0,180.0,1,0.8462376707290659,0.0
414,414,0.18553195645015674,0.2,0,336.0,794.0,1.0,310.0,0,0.9941696107900937,0.0
415,415,-0.5669049760392049,-0.6,1,428.0,571.0,1.0,211.0,1,0.9886834544655618,0.0
416,416,-0.28656187279618517,-0.3,1,358.0,838.0,1.0,334.0,1,0.9318133324060974,0.0
417,417,-0.09002770840098884,-0.1,1,357.0,668.0,1.0,315.0,1,0.7425558325549877,0.0
418,418,0.8386817678740284,0.8,0,285.0,732.0,0.0,243.0,1,0.6797794225835839,0.0
419,419,0.10916163188851757,0.1,0,344.0,626.0,0.0,410.0,1,0.7152925210997213,0.0
420,420,-0.5035159475552198,-0.5,1,363.0,890.0,1.0,157.0,1,0.7634396320341446,0.0
421,421,-0.3497873457941507,-0.3,1,422.0,572.0,1.0,216.0,1,1.0752958935835029,0.0
422,422,-0.003172924401198207,-0.0,1,357.0,818.0,1.0,145.0,1,0.9731543910345799,0.0
423,423,-0.6492406813102933,-0.6,1,463.0,534.0,1.0,183.0,1,0.7025871753497922,0.0
424,424,0.9430175588954328,0.9,0,497.0,992.0,0.0,91.0,1,0.9854256299830243,0.0
425,425,0.26849684560662834,0.3,0,321.0,840.0,1.0,219.0,0,1.1797929663376188,0.0
426,426,0.03503009566809201,0.0,0,460.0,819.0,1.0,251.0,0,1.2049371761969692,0.0
427,427,-0.6288890199956019,-0.6,1,322.0,542.0,1.0,176.0,1,0.7357175355742049,0.0
428,428,0.9338749820228576,0.9,0,384.0,555.0,0.0,141.0,1,1.0322546757914952,0.0
429,429,0.815733900769497,0.8,0,326.0,683.0,0.0,331.0,1,0.5314489552987749,0.0
430,430,0.07933097960578128,0.1,0,262.0,696.0,1.0,522.0,0,0.9362670378229336,0.0
431,431,0.6631537660974052,0.7,0,330.0,798.0,0.0,232.0,1,0.7002120325315672,0.0
432,432,0.44418996953770207,0.4,0,354.0,909.0,0.0,127.0,1,0.8390395845949021,0.0
433,433,0.12193736794002663,0.1,0,473.0,761.0,0.0,186.0,1,1.046862408162386,0.0
434,434,0.7375501397801068,0.7,0,393.0,541.0,0.0,256.0,1,0.9935147238947138,0.0
435,435,-0.7613681699047317,-0.8,1,289.0,871.0,1.0,160.0,1,0.8581757350000888,0.0
436,436,-0.9683794126908878,-1.0,1,477.0,743.0,1.0,110.0,1,0.8084540220772016,0.0
437,437,-0.6165840716526421,-0.6,1,305.0,592.0,1.0,103.0,1,0.9437353906944916,0.0
438,438,0.25371796692032555,0.3,0,260.0,946.0,1.0,294.0,0,0.949878342856026,0.0
439,439,0.8514598668389091,0.9,0,431.0,952.0,0.0,207.0,1,1.1588094673612281,0.0
440,440,0.6455888984814648,0.6,0,271.0,765.0,0.0,154.0,1,0.89395996195669,0.0
441,441,-0.7570373398092862,-0.8,1,378.0,766.0,1.0,136.0,1,0.6957227486436643,0.0
442,442,0.4679652805513488,0.5,0,324.0,511.0,0.0,295.0,1,0.5562513433596107,0.0
443,443,-0.9811031791595426,-1.0,1,296.0,725.0,1.0,239.0,1,1.082049171137603,0.0
444,444,-0.03948358689385234,-0.0,1,382.0,780.0,0.0,288.0,0,1.0313152647769641,0.0
445,445,0.11529482616800846,0.1,0,403.0,855.0,0.0,342.0,1,1.0783131016307754,0.0
446,446,-0.9975681967309424,-1.0,1,315.0,890.0,1.0,155.0,1,1.1488100586793626,0.0
447,447,0.5986137531048012,0.6,0,460.0,930.0,0.0,200.0,1,0.5370557590372781,0.0
448,448,-0.209224949392383,-0.2,1,410.0,783.0,1.0,227.0,1,0.8425641540743645,0.0
449,449,-0.42844327262366555,-0.4,1,291.0,910.0,1.0,269.0,1,0.8830083210059477,0.0
450,450,0.24072087049290913,0.2,0,437.0,796.0,0.0,267.0,1,0.7675285854579065,0.0
451,451,0.058011801031489174,0.1,0,285.0,661.0,0.0,304.0,1,0.8038974604241462,0.0
452,452,0.9763090006068944,1.0,0,287.0,904.0,0.0,109.0,1,1.2441758097505136,0.0
453,453,-0.7617905791509336,-0.8,1,404.0,846.0,1.0,180.0,1,0.8637951224870581,0.0
454,454,0.49802062655815216,0.5,0,309.0,984.0,0.0,257.0,1,1.2413562741908448,0.0
455,455,-0.3110639093741765,-0.3,1,266.0,924.0,1.0,310.0,1,0.8378139927201368,0.0
456,456,0.3125550830793571,0.3,0,373.0,993.0,0.0,264.0,1,0.7874141163855723,0.0
457,457,-0.2930085601900094,-0.3,1,450.0,575.0,1.0,135.0,1,0.8873393003990715,0.0
458,458,0.39935093937576593,0.4,0,391.0,989.0,0.0,290.0,1,1.208516317843662,0.0
459,459,-0.1151787336907919,-0.1,1,453.0,699.0,1.0,348.0,1,1.246695249559763,0.0
460,460,0.16850915269612843,0.2,0,349.0,865.0,1.0,276.0,0,0.9781338626852136,0.0
461,461,0.4663840227939511,0.5,0,291.0,501.0,0.0,218.0,1,0.5961071971460317,0.0
462,462,-0.595603277294785,-0.6,1,256.0,786.0,1.0,148.0,1,1.206441410087457,0.0
463,463,-0.9970089178254546,-1.0,1,332.0,973.0,1.0,135.0,1,0.774515243089863,0.0
464,464,0.9878899884524264,1.0,0,403.0,928.0,0.0,179.0,1,0.7698838418922771,0.0
465,465,0.4247514708480995,0.4,0,403.0,976.0,0.0,341.0,1,0.6195836557624529,0.0
466,466,-0.6151195211921947,-0.6,1,286.0,588.0,1.0,216.0,1,1.0372659798055495,0.0
467,467,-0.43289336918355303,-0.4,1,406.0,620.0,1.0,214.0,1,1.0344979529135943,0.0
468,468,-0.42314711456709575,-0.4,1,338.0,873.0,1.0,279.0,1,1.010315331808958,0.0
469,469,0.4001936514933251,0.4,0,317.0,665.0,0.0,218.0,1,1.1820082651662667,0.0
470,470,0.684456909662357,0.7,0,286.0,835.0,0.0,169.0,1,0.6994408507755314,0.0
471,471,-0.3750724660389837,-0.4,1,294.0,863.0,1.0,293.0,1,1.1255732320325702,0.0
472,472,-0.521081168869719,-0.5,1,348.0,686.0,1.0,266.0,1,0.6053916474829218,0.0
473,473,0.40747341964703354,0.4,0,258.0,829.0,0.0,323.0,1,0.544579102118357,0.0
474,474,0.2996287421700232,0.3,0,421.0,941.0,0.0,218.0,1,1.1009533270653304,0.0
475,475,-0.8513508792050517,-0.9,1,459.0,809.0,1.0,172.0,1,1.1713022490456746,0.0
476,476,0.25383437750033333,0.3,0,431.0,501.0,1.0,258.0,0,1.1409361222397212,0.0
477,477,-0.5675502548027205,-0.6,1,309.0,571.0,1.0,140.0,1,1.1170854370166938,0.0
478,478,-0.2687775404124988,-0.3,1,326.0,608.0,1.0,226.0,1,0.7734783246771418,0.0
479,479,0.9725556323757385,1.0,0,342.0,507.0,0.0,191.0,1,0.874260610759346,0.0
480,480,-0.9999218456005574,-1.0,1,489.0,624.0,1.0,187.0,1,0.7061679340479952,0.0
481,481,-0.3756757630462739,-0.4,1,426.0,986.0,1.0,278.0,1,0.5378220766260207,0.0
482,482,-0.7624492433769872,-0.8,1,452.0,885.0,1.0,163.0,1,0.884232979988196,0.0
483,483,0.07493938997731409,0.1,0,379.0,828.0,0.0,593.0,1,0.6786377451452176,0.0
484,484,-0.667842834724707,-0.7,1,426.0,539.0,1.0,315.0,1,1.171836397022505,0.0
485,485,-0.3815468064315828,-0.4,1,402.0,954.0,1.0,224.0,1,1.0276306082914055,0.0
486,486,-0.1361373509402244,-0.1,1,356.0,541.0,1.0,343.0,1,0.5796325352898855,0.0
487,487,-0.5368286631851187,-0.5,1,415.0,876.0,1.0,189.0,1,0.8373563289482571,0.0
488,488,-0.8941594938912227,-0.9,1,418.0,852.0,1.0,180.0,1,1.0584202334882675,0.0
489,489,-0.8361172504640961,-0.8,1,469.0,745.0,1.0,146.0,1,0.9907903454129369,0.0
490,490,0.1686333705592784,0.2,0,358.0,578.0,0.0,244.0,1,1.0475134943412436,0.0
491,491,-0.6288759134169062,-0.6,1,482.0,713.0,1.0,205.0,1,1.134829806081758,0.0
492,492,-0.0928765101845157,-0.1,1,314.0,699.0,1.0,147.0,1,1.053870109875477,0.0
493,493,0.6405091421154521,0.6,0,255.0,675.0,0.0,190.0,1,1.1787773146974343,0.0
494,494,0.7325801909767113,0.7,0,492.0,526.0,0.0,112.0,1,0.8757243362263797,0.0
495,495,0.5072561446483734,0.5,0,318.0,950.0,0.0,202.0,1,1.2345335071166343,0.0
496,496,0.4323380660861502,0.4,0,256.0,781.0,0.0,263.0,1,0.9621732055401531,0.0
497,497,0.5858146551679602,0.6,0,330.0,920.0,0.0,390.0,1,0.5369307382258295,0.0
498,498,-0.2315534445270313,-0.2,1,307.0,587.0,1.0,156.0,1,0.9722235034617169,0.0
499,499,-0.6545450702199331,-0.7,1,366.0,914.0,1.0,160.0,1,1.0459697295304433,0.0
500,500,0.17755537955186118,0.2,0,404.0,663.0,0.0,233.0,1,0.796561232305709,0.0
501,501,0.6751961074582764,0.7,0,381.0,800.0,0.0,229.0,1,0.565725408069229,0.0
502,502,0.10700003203843211,0.1,0,409.0,876.0,1.0,245.0,0,1.131543220945078,0.0
503,503,0.5661007760091579,0.6,0,465.0,936.0,0.0,129.0,1,1.0047042013868586,0.0
504,504,-0.56325109535986,-0.6,1,372.0,602.0,1.0,186.0,1,1.2390918789855743,0.0
505,505,0.5001090791655354,0.5,0,279.0,810.0,0.0,291.0,1,1.1828171064801745,0.0
506,506,-0.006730947326501147,-0.0,1,478.0,972.0,0.0,430.0,0,0.7079006762713977,0.0
507,507,-0.4294093528720353,-0.4,1,463.0,938.0,1.0,169.0,1,1.082012928151236,0.0
508,508,0.11387488725649986,0.1,0,404.0,634.0,1.0,192.0,0,1.1275596938142822,0.0
509,509,0.7724691777801826,0.8,0,446.0,893.0,0.0,211.0,1,1.2209135704833551,0.0
510,510,-0.08609341519273594,-0.1,1,466.0,794.0,1.0,210.0,1,1.052272855261418,0.0
511,511,0.35818311943694336,0.4,0,377.0,668.0,0.0,145.0,1,1.140073672488346,0.0
512,512,-0.958152628918485,-1.0,1,419.0,695.0,1.0,136.0,1,1.2163738530627217,0.0
513,513,0.45031795032812894,0.5,0,477.0,853.0,0.0,360.0,1,0.9789652748835244,0.0
514,514,0.9297856201268848,0.9,0,452.0,631.0,0.0,307.0,1,0.7640950575582146,0.0
515,515,0.3247090210044057,0.3,0,329.0,648.0,0.0,243.0,1,1.0478391755185397,0.0
516,516,0.1472603265480552,0.1,0,362.0,679.0,1.0,409.0,0,1.1469361717336652,0.0
517,517,0.9999397385548998,1.0,0,349.0,687.0,0.0,184.0,1,0.5201551301925699,0.0
518,518,-0.34373356175093583,-0.3,1,382.0,914.0,1.0,124.0,1,1.1083240285169347,0.0
519,519,-0.18796949899465543,-0.2,1,263.0,628.0,1.0,249.0,1,0.9332315883109787,0.0
520,520,-0.5233634873956718,-0.5,1,497.0,838.0,1.0,225.0,1,0.8709605521066043,0.0
521,521,-0.08408675897991147,-0.1,1,291.0,869.0,1.0,280.0,1,1.242122862210595,0.0
522,522,-0.5869329029763672,-0.6,1,481.0,673.0,1.0,156.0,1,1.050463362629201,0.0
523,523,0.40566995038342446,0.4,0,434.0,970.0,0.0,206.0,1,0.8352339810442748,0.0
524,524,-0.6391371001977442,-0.6,1,367.0,663.0,1.0,130.0,1,1.041855641139874,0.0
525,525,-0.9228507789050953,-0.9,1,444.0,691.0,1.0,155.0,1,1.2419189452507657,0.0
526,526,0.9227292492415233,0.9,0,265.0,679.0,0.0,146.0,1,1.1420683303193342,0.0
527,527,-0.8375539376844401,-0.8,1,390.0,989.0,1.0,141.0,1,1.0132234792601564,0.0
528,528,-0.6887401397467843,-0.7,1,255.0,621.0,1.0,164.0,1,0.7456179432452129,0.0
529,529,-0.4782611398880976,-0.5,1,404.0,874.0,1.0,152.0,1,1.1234431365911264,0.0
530,530,0.3222615407057736,0.3,0,293.0,941.0,0.0,236.0,1,0.9428692858677331,0.0
531,531,0.13654248291065296,0.1,0,303.0,990.0,0.0,297.0,1,1.235851026929661,0.0
532,532,-0.6221567970149595,-0.6,1,391.0,514.0,1.0,195.0,1,0.7104655648984222,0.0
533,533,0.3097085867034801,0.3,0,262.0,579.0,0.0,289.0,1,0.9668208691104591,0.0
534,534,0.8360697645903303,0.8,0,265.0,528.0,0.0,197.0,1,0.6556794019980831,0.0
535,535,0.0763417627789158,0.1,0,434.0,682.0,1.0,564.0,0,0.6381212017834008,0.0
536,536,0.17633279360582899,0.2,0,389.0,600.0,0.0,421.0,1,0.8757394675383624,0.0
537,537,0.6615553977024144,0.7,0,343.0,795.0,0.0,172.0,1,0.665921165558628,0.0
538,538,-0.13756774698306962,-0.1,1,445.0,818.0,1.0,227.0,1,0.5740879648029491,0.0
539,539,-0.5079850637526617,-0.5,1,352.0,584.0,1.0,154.0,1,0.9738148760072822,0.0
540,540,-0.43546821127777147,-0.4,1,266.0,942.0,1.0,192.0,1,0.7911050186301324,0.0
541,541,0.970915808038024,1.0,0,364.0,554.0,0.0,92.0,1,0.8943858467791734,0.0
542,542,0.021309579872972106,0.0,0,486.0,986.0,0.0,378.0,1,0.6613987577388629,0.0
543,543,-0.580145047594423,-0.6,1,273.0,622.0,1.0,215.0,1,0.6374413022555039,0.0
544,544,0.8363260819634504,0.8,0,319.0,543.0,0.0,198.0,1,1.1614467322929718,0.0
545,545,0.13665684313449433,0.1,0,264.0,644.0,0.0,312.0,1,0.5267168509473377,0.0
546,546,0.6948360191401075,0.7,0,253.0,537.0,0.0,210.0,1,0.8683676919880139,0.0
547,547,0.6934800299795003,0.7,0,357.0,763.0,0.0,230.0,1,0.5649109061182394,0.0
548,548,0.4193275826625511,0.4,0,369.0,799.0,0.0,222.0,1,1.046617579419658,0.0
549,549,0.34335580296922674,0.3,0,439.0,520.0,0.0,271.0,1,1.2473865217150804,0.0
550,550,-0.21262940589219959,-0.2,1,258.0,529.0,1.0,243.0,1,1.202412961891578,0.0
551,551,-0.7693268232878439,-0.8,1,367.0,681.0,1.0,182.0,1,1.0814452458481454,0.0
552,552,0.5326760554740595,0.5,0,415.0,863.0,0.0,212.0,1,1.1042310814690242,0.0
553,553,0.7436013061297417,0.7,0,377.0,969.0,0.0,264.0,1,1.1244179306255937,0.0
554,554,0.26142242030639573,0.3,0,330.0,944.0,0.0,246.0,1,0.9017173005522275,0.0
555,555,-0.8201501679378647,-0.8,1,280.0,675.0,1.0,145.0,1,0.764083822958231,0.0
556,556,0.3548045025429154,0.4,0,337.0,547.0,0.0,376.0,1,0.5981892461527909,0.0
557,557,-0.8825987048858441,-0.9,1,492.0,996.0,1.0,212.0,1,0.6302889327147011,0.0
558,558,0.7421906432836831,0.7,0,311.0,570.0,0.0,239.0,1,0.7624467982463308,0.0
559,559,0.08051263099416084,0.1,0,499.0,585.0,0.0,216.0,1,1.0193469558182076,0.0
560,560,0.6077342504881558,0.6,0,321.0,882.0,0.0,177.0,1,0.5770691957556445,0.0
561,561,-0.5116267862602539,-0.5,1,429.0,588.0,1.0,193.0,1,1.1152306262771945,0.0
562,562,0.3792662688702255,0.4,0,360.0,530.0,0.0,540.0,1,0.5634115949914965,0.0
563,563,0.4642381642297193,0.5,0,423.0,649.0,0.0,188.0,1,1.2242863596192533,0.0
564,564,-0.08754640852618434,-0.1,1,275.0,758.0,1.0,397.0,1,0.95957942479727,0.0
565,565,-0.08926142786114588,-0.1,1,422.0,874.0,1.0,694.0,1,0.6319509897091588,0.0
566,566,-0.652363339054028,-0.7,1,351.0,662.0,1.0,207.0,1,0.6502042873485205,0.0
567,567,0.03561918180423285,0.0,0,354.0,944.0,0.0,372.0,1,0.7407320496440656,0.0
568,568,-0.5577475139013428,-0.6,1,420.0,563.0,1.0,277.0,1,0.9597563660818462,0.0
569,569,0.7321632455110076,0.7,0,403.0,587.0,0.0,160.0,1,1.074929113434929,0.0
570,570,0.7090614338197943,0.7,0,493.0,893.0,0.0,204.0,1,1.0105800482665217,0.0
571,571,0.6265760741459268,0.6,0,405.0,873.0,0.0,142.0,1,1.0127811902574915,0.0
572,572,0.6110801171465416,0.6,0,265.0,555.0,0.0,160.0,1,1.0291508362741553,0.0
573,573,0.0941331996471142,0.1,0,299.0,583.0,0.0,328.0,1,0.6947606853096635,0.0
574,574,-0.2454755774003723,-0.2,1,497.0,556.0,1.0,297.0,1,0.6546059080268749,0.0
575,575,0.3008913400180415,0.3,0,321.0,769.0,0.0,440.0,1,0.6497837016612518,0.0
576,576,-0.8114742140434061,-0.8,1,392.0,792.0,1.0,126.0,1,0.8618923805381785,0.0
577,577,0.32572670550734184,0.3,0,310.0,930.0,0.0,210.0,1,0.8678337960411129,0.0
578,578,0.037263187637879946,0.0,0,449.0,822.0,0.0,459.0,1,0.7893649400798896,0.0
579,579,-0.554966098200427,-0.6,1,304.0,718.0,1.0,238.0,1,1.1429906786893353,0.0
580,580,0.7849465637686017,0.8,0,345.0,885.0,0.0,170.0,1,1.12395965984095,0.0
581,581,0.9024132576872557,0.9,0,400.0,735.0,0.0,175.0,1,0.8314932022355626,0.0
582,582,-0.4659399531302719,-0.5,1,277.0,633.0,1.0,380.0,1,0.6047793346157979,0.0
583,583,0.3689678115986994,0.4,0,462.0,809.0,0.0,259.0,1,0.7736747274038787,0.0
584,584,0.5167122613813175,0.5,0,344.0,751.0,0.0,375.0,1,1.0488942323394397,0.0
585,585,0.040804198267540004,0.0,0,381.0,918.0,1.0,321.0,0,1.2208004649729025,0.0
586,586,0.484455943115607,0.5,0,314.0,991.0,0.0,345.0,1,1.0132991348772773,0.0
587,587,0.6146651229924693,0.6,0,497.0,586.0,0.0,237.0,1,0.9553368817802494,0.0
588,588,-0.26706554873450816,-0.3,1,371.0,841.0,1.0,398.0,1,0.5890579960477061,0.0
589,589,-0.5028883735167187,-0.5,1,302.0,581.0,1.0,167.0,1,1.1712920019316047,0.0
590,590,-0.9051475809425735,-0.9,1,326.0,858.0,1.0,246.0,1,1.1619625421139537,0.0
591,591,-0.4498982753715908,-0.4,1,370.0,605.0,1.0,155.0,1,0.7884289831492453,0.0
592,592,-0.7482077766160653,-0.7,1,389.0,920.0,1.0,241.0,1,0.5471630169115415,0.0
593,593,-0.11777047234294247,-0.1,1,282.0,917.0,1.0,241.0,1,1.0689846427175185,0.0
594,594,-0.4721591590929728,-0.5,1,343.0,844.0,1.0,123.0,1,0.8553858258980231,0.0
595,595,-0.6889279415509637,-0.7,1,474.0,544.0,1.0,202.0,1,1.0998555083461858,0.0
596,596,0.9426561392041981,0.9,0,332.0,923.0,0.0,165.0,1,1.107020351828664,0.0
597,597,-0.018261131736938108,-0.0,1,408.0,654.0,0.0,228.0,0,1.0084377834044953,0.0
598,598,-0.9048472045828775,-0.9,1,273.0,627.0,1.0,150.0,1,0.8153773541720841,0.0
599,599,-0.28120293990059664,-0.3,1,428.0,763.0,1.0,179.0,1,0.8946714037483321,0.0
600,600,-0.8001618536568016,-0.8,1,366.0,956.0,1.0,168.0,1,0.9389912794655132,0.0
601,601,0.8252439603324353,0.8,0,360.0,739.0,0.0,141.0,1,0.9963974708123121,0.0
602,602,0.745264227563166,0.7,0,302.0,913.0,0.0,415.0,1,0.5116971206979986,0.0
603,603,0.027814363559357513,0.0,0,272.0,524.0,1.0,214.0,0,0.9417060518339089,0.0
604,604,-0.9055772198490024,-0.9,1,305.0,764.0,1.0,201.0,1,1.184011141753137,0.0
605,605,0.9053403835096381,0.9,0,482.0,547.0,0.0,101.0,1,0.8464348839486737,0.0
606,606,0.7496763957049084,0.7,0,318.0,695.0,0.0,227.0,1,1.207684068317129,0.0
607,607,0.236718239471011,0.2,0,497.0,827.0,0.0,366.0,1,0.7459489139744833,0.0
608,608,0.5517743188612929,0.6,0,383.0,652.0,0.0,385.0,1,0.7483779496478763,0.0
609,609,-0.4814114931709699,-0.5,1,420.0,552.0,1.0,198.0,1,0.6727350830300931,0.0
610,610,0.07696230944636273,0.1,0,492.0,769.0,0.0,179.0,1,1.0377877889654443,0.0
611,611,0.7075485617349244,0.7,0,368.0,506.0,0.0,186.0,1,0.5737693394691202,0.0
612,612,0.647258323015035,0.6,0,417.0,851.0,0.0,332.0,1,0.842488397119296,0.0
613,613,-0.5207804582187583,-0.5,1,387.0,975.0,1.0,178.0,1,1.0491554230658873,0.0
614,614,0.2933729972569832,0.3,0,429.0,636.0,0.0,115.0,1,1.1961713231030657,0.0
615,615,0.4189710355925649,0.4,0,278.0,951.0,0.0,181.0,1,0.6952782310163798,0.0
616,616,-0.21697938862645083,-0.2,1,394.0,985.0,1.0,241.0,1,1.1720649079754737,0.0
617,617,-0.8680501329270309,-0.9,1,359.0,541.0,1.0,150.0,1,1.105476182505487,0.0
618,618,-0.7710689466257423,-0.8,1,406.0,701.0,1.0,183.0,1,0.9107803076213398,0.0
619,619,0.8135025306018826,0.8,0,405.0,804.0,0.0,191.0,1,0.9858767133548294,0.0
620,620,-0.07719348999838616,-0.1,1,312.0,858.0,1.0,210.0,1,1.135136654102264,0.0
621,621,0.7613504838530241,0.8,0,455.0,673.0,0.0,162.0,1,0.8168410390999575,0.0
622,622,0.9067427863597615,0.9,0,384.0,963.0,0.0,183.0,1,1.021644888446871,0.0
623,623,0.6811414416714925,0.7,0,251.0,914.0,0.0,145.0,1,0.7959302649473434,0.0
624,624,-0.12064108063163381,-0.1,1,389.0,929.0,1.0,182.0,1,1.2346066781505183,0.0
625,625,0.04134866238926027,0.0,0,437.0,868.0,1.0,625.0,0,0.6181131336744082,0.0
626,626,-0.22119907983711573,-0.2,1,496.0,557.0,1.0,237.0,1,1.072037961783454,0.0
627,627,-0.2718206576548543,-0.3,1,295.0,544.0,1.0,301.0,1,0.8173714392536675,0.0
628,628,-0.8802927753049807,-0.9,1,309.0,849.0,1.0,182.0,1,0.8282339822508511,0.0
629,629,0.5380399222339098,0.5,0,340.0,638.0,0.0,272.0,1,1.2018365036117236,0.0
630,630,-0.6913357429597278,-0.7,1,264.0,702.0,1.0,174.0,1,1.008801479286817,0.0
631,631,0.1980004906438948,0.2,0,270.0,533.0,0.0,227.0,1,1.1878635103064779,0.0
632,632,-0.6937601138757992,-0.7,1,344.0,985.0,1.0,171.0,1,1.2043534897025092,0.0
633,633,-0.781088166160498,-0.8,1,291.0,972.0,1.0,177.0,1,0.5476507395491963,0.0
634,634,0.9279211258366773,0.9,0,360.0,780.0,0.0,240.0,1,0.6918449782557967,0.0
635,635,0.06008802718330619,0.1,0,436.0,601.0,1.0,243.0,0,0.674544138020666,0.0
636,636,-0.8906580731315399,-0.9,1,363.0,637.0,1.0,150.0,1,1.086592085670504,0.0
637,637,-0.46143420296602256,-0.5,1,323.0,535.0,1.0,192.0,1,0.9030505613564056,0.0
638,638,0.3389021867115787,0.3,0,450.0,690.0,0.0,140.0,1,1.1992347796969485,0.0
639,639,-0.6399403659904153,-0.6,1,277.0,713.0,1.0,160.0,1,0.8002686562984584,0.0
640,640,-0.09023488908010524,-0.1,1,339.0,796.0,0.0,225.0,0,1.027238133585004,0.0
641,641,0.35172232185964947,0.4,0,494.0,679.0,0.0,287.0,1,1.0814346624487332,0.0
642,642,0.4562779784154869,0.5,0,329.0,911.0,0.0,230.0,1,1.0726347188626129,0.0
643,643,0.8911858055048225,0.9,0,401.0,532.0,0.0,167.0,1,1.1884327256225755,0.0
644,644,0.9107943792802513,0.9,0,490.0,832.0,0.0,128.0,1,0.7513082063732658,0.0
645,645,-0.17169916249357398,-0.2,1,335.0,779.0,1.0,636.0,1,0.5591789117119845,0.0
646,646,0.5558842853925356,0.6,0,301.0,713.0,0.0,226.0,1,1.164364430072129,0.0
647,647,0.8043146878704768,0.8,0,344.0,936.0,0.0,210.0,1,0.6119867071188065,0.0
648,648,-0.5192084454824528,-0.5,1,272.0,988.0,1.0,250.0,1,1.2422403847333667,0.0
649,649,0.7150293819841294,0.7,0,272.0,784.0,0.0,244.0,1,0.7403511123910764,0.0
650,650,0.3913577964667565,0.4,0,404.0,875.0,0.0,161.0,1,1.1824279197680383,0.0
651,651,-0.06527125491823593,-0.1,1,392.0,974.0,1.0,344.0,1,1.0983492546845208,0.0
652,652,0.6588454459972504,0.7,0,297.0,912.0,0.0,271.0,1,0.8784526746101229,0.0
653,653,0.5637225254979463,0.6,0,254.0,693.0,1.0,193.0,0,1.18272583616368,0.0
654,654,0.12681119477431468,0.1,0,490.0,539.0,1.0,211.0,0,0.8674188455529344,0.0
655,655,0.8568451272605309,0.9,0,300.0,667.0,0.0,223.0,1,1.0113672753160143,0.0
656,656,-0.2785701955845088,-0.3,1,263.0,861.0,1.0,256.0,1,0.8335783157020678,0.0
657,657,0.6206410620265215,0.6,0,495.0,844.0,0.0,151.0,1,0.779936599300674,0.0
658,658,-0.5568006529073077,-0.6,1,371.0,509.0,1.0,160.0,1,0.792129182562023,0.0
659,659,0.878845979110259,0.9,0,412.0,609.0,0.0,249.0,1,0.914729135819504,0.0
660,660,0.9696146424962182,1.0,0,393.0,701.0,0.0,166.0,1,0.8230677029564399,0.0
661,661,0.42382783499808574,0.4,0,344.0,817.0,0.0,329.0,1,1.0986370696526937,0.0
662,662,0.4076440152491583,0.4,0,448.0,700.0,0.0,222.0,1,1.2415625377923623,0.0
663,663,0.7443648342554943,0.7,0,278.0,606.0,0.0,186.0,1,0.8282680011162346,0.0
664,664,0.2608101918513972,0.3,0,438.0,936.0,0.0,296.0,1,0.7669415391058326,0.0
665,665,0.0807456209518449,0.1,0,268.0,840.0,1.0,312.0,0,0.8913392453195029,0.0
666,666,0.8106739316757587,0.8,0,449.0,860.0,0.0,331.0,1,0.5006914685113579,0.0
667,667,-0.8076318403563327,-0.8,1,273.0,865.0,1.0,192.0,1,0.8142962133180457,0.0
668,668,0.9479055209564469,0.9,0,338.0,750.0,0.0,182.0,1,0.5749420991859459,0.0
669,669,-0.6624843049812759,-0.7,1,434.0,785.0,1.0,131.0,1,0.9936536594916361,0.0
670,670,0.20195296006476515,0.2,0,394.0,805.0,0.0,181.0,1,1.0268696520550058,0.0
671,671,0.6629586167724497,0.7,0,321.0,834.0,0.0,185.0,1,0.7916844782541435,0.0
672,672,0.8802484128661385,0.9,0,384.0,664.0,0.0,162.0,1,0.9695136221815702,0.0
673,673,0.014106608583664748,0.0,0,459.0,924.0,0.0,-123.0,1,1.157938136533665,0.0
674,674,0.12224892699026224,0.1,0,286.0,562.0,1.0,612.0,0,0.6271304627955135,0.0
675,675,0.40756918889180915,0.4,0,344.0,824.0,0.0,162.0,1,0.6625987067342317,0.0
676,676,0.5159506209574041,0.5,0,250.0,817.0,0.0,173.0,1,0.9783577513390687,0.0
677,677,0.9615296153137294,1.0,0,435.0,555.0,0.0,130.0,1,0.5862811171302328,0.0
678,678,0.8271122563859659,0.8,0,326.0,627.0,0.0,117.0,1,0.8875057893611573,0.0
679,679,-0.2155369521340409,-0.2,1,465.0,774.0,1.0,261.0,1,1.2466546965341188,0.0
680,680,-0.6526879388944655,-0.7,1,407.0,729.0,1.0,134.0,1,0.9748490283443516,0.0
681,681,-0.6160242963429532,-0.6,1,394.0,868.0,1.0,158.0,1,1.049867709118824,0.0
682,682,-0.4729409077263744,-0.5,1,496.0,867.0,1.0,117.0,1,1.2266346251839104,0.0
683,683,0.9723398405729162,1.0,0,387.0,922.0,0.0,131.0,1,0.8276029926755282,0.0
684,684,-0.14485902520671168,-0.1,1,343.0,664.0,1.0,233.0,1,1.2361616350145561,0.0
685,685,-0.6320172805183686,-0.6,1,390.0,523.0,1.0,157.0,1,0.5896283990623308,0.0
686,686,0.936891384731825,0.9,0,466.0,899.0,0.0,165.0,1,0.5037024098101919,0.0
687,687,-0.8939687789229347,-0.9,1,420.0,741.0,1.0,139.0,1,0.85733781178435,0.0
688,688,0.624373183660814,0.6,0,385.0,793.0,0.0,202.0,1,1.020622775123134,0.0
689,689,0.36999964088099047,0.4,0,393.0,930.0,0.0,207.0,1,1.2474514198841797,0.0
690,690,-0.3259696378155259,-0.3,1,496.0,845.0,1.0,249.0,1,0.8967307024233787,0.0
691,691,-0.949354406755488,-0.9,1,445.0,863.0,1.0,182.0,1,0.6090655929188096,0.0
692,692,-0.7909292398268171,-0.8,1,371.0,988.0,1.0,181.0,1,1.2275950449272333,0.0
693,693,0.5197301334097064,0.5,0,272.0,710.0,0.0,168.0,1,1.0451523092456614,0.0
694,694,0.7346154233749829,0.7,0,310.0,944.0,0.0,186.0,1,0.734788405388578,0.0
695,695,0.2282796563111229,0.2,0,473.0,701.0,1.0,-804.0,0,0.9898561199638621,0.0
696,696,0.8191485389482691,0.8,0,477.0,944.0,0.0,279.0,1,0.6464365052242569,0.0
697,697,0.31790197174672974,0.3,0,261.0,607.0,0.0,522.0,1,0.6564964577039961,0.0
698,698,-0.6061484223952789,-0.6,1,283.0,990.0,1.0,207.0,1,0.5592206938733123,0.0
699,699,-0.6139260240506987,-0.6,1,440.0,661.0,1.0,289.0,1,0.8487438819529936,0.0
700,700,0.8547688689184405,0.9,0,480.0,775.0,0.0,165.0,1,1.2288099413085964,0.0
701,701,0.6012308485966686,0.6,0,396.0,931.0,0.0,103.0,1,1.031999746333641,0.0
702,702,-0.4296656377938788,-0.4,1,489.0,902.0,1.0,459.0,1,0.500747555428679,0.0
703,703,0.2141555915981399,0.2,0,437.0,680.0,0.0,353.0,1,0.5307250567405625,0.0
704,704,-0.9533662695770708,-1.0,1,333.0,733.0,1.0,164.0,1,0.7515302120537974,0.0
705,705,0.5922558362217709,0.6,0,319.0,733.0,0.0,448.0,1,1.1873328474004845,0.0
706,706,0.3414447021508089,0.3,0,280.0,547.0,0.0,283.0,1,0.8732703816977716,0.0
707,707,0.9587009131121269,1.0,0,304.0,571.0,0.0,215.0,1,0.5026417141804747,0.0
708,708,0.9463297837647278,0.9,0,302.0,839.0,0.0,149.0,1,0.9569107360808886,0.0
709,709,-0.06422961674716299,-0.1,1,265.0,544.0,1.0,291.0,1,1.0839532686919349,0.0
710,710,-0.30302170374899995,-0.3,1,458.0,603.0,1.0,199.0,1,0.9982136655680908,0.0
711,711,0.05317990146823326,0.1,0,377.0,620.0,1.0,253.0,0,0.9472384945604045,0.0
712,712,-0.370658202574738,-0.4,1,400.0,706.0,1.0,164.0,1,1.1036929651789094,0.0
713,713,-0.951309396485132,-1.0,1,366.0,961.0,1.0,143.0,1,0.8079886003598031,0.0
714,714,-0.7090598613698866,-0.7,1,494.0,755.0,1.0,221.0,1,0.5998057628422109,0.0
715,715,-0.03112260911539866,-0.0,1,304.0,547.0,1.0,269.0,1,1.1207999197338574,0.0
716,716,-0.11360836575899724,-0.1,1,296.0,882.0,1.0,242.0,1,0.7295675909599126,0.0
717,717,-0.6976176008976553,-0.7,1,477.0,875.0,1.0,208.0,1,1.2041586583014305,0.0
718,718,-0.25473175221689437,-0.3,1,481.0,952.0,1.0,347.0,1,1.1372646220573637,0.0
719,719,-0.18036672983338087,-0.2,1,483.0,598.0,1.0,179.0,1,1.2214492498248992,0.0
720,720,0.9188824568752403,0.9,0,267.0,691.0,0.0,212.0,1,1.0256649204315305,0.0
721,721,0.07451010519562984,0.1,0,368.0,929.0,0.0,193.0,1,1.1650913542220978,0.0
722,722,0.23668123616346537,0.2,0,424.0,552.0,0.0,254.0,1,0.6595225687497571,0.0
723,723,0.6296143211501495,0.6,0,417.0,568.0,0.0,135.0,1,1.0598697423083057,0.0
724,724,0.425610549903614,0.4,0,326.0,750.0,0.0,134.0,1,1.138894437767148,0.0
725,725,0.6177145889159179,0.6,0,369.0,570.0,0.0,221.0,1,0.9198692938515498,0.0
726,726,-0.47234783624153254,-0.5,1,493.0,910.0,1.0,277.0,1,1.1296772847495276,0.0
727,727,-0.4762133102453616,-0.5,1,484.0,596.0,1.0,210.0,1,1.135334054489244,0.0
728,728,0.8491936663510302,0.8,0,306.0,601.0,0.0,203.0,1,0.833989677225046,0.0
729,729,-0.40123570358993255,-0.4,1,361.0,977.0,1.0,232.0,1,0.8656738249683893,0.0
730,730,0.2908000795880301,0.3,0,256.0,757.0,0.0,187.0,1,0.6429679167094989,0.0
731,731,-0.796111635014235,-0.8,1,362.0,660.0,1.0,138.0,1,0.9501428232955087,0.0
732,732,0.3248309164571044,0.3,0,435.0,653.0,0.0,422.0,1,0.7558056911664776,0.0
733,733,-0.02897848264371472,-0.0,1,475.0,732.0,0.0,343.0,0,1.0981240835689674,0.0
734,734,0.4290074034964748,0.4,0,370.0,863.0,0.0,197.0,1,1.1037031660276266,0.0
735,735,0.28326323000810727,0.3,0,394.0,939.0,0.0,217.0,1,1.2033516305259662,0.0
736,736,0.5863678283383014,0.6,0,319.0,569.0,0.0,252.0,1,0.7581832041210984,0.0
737,737,0.6558776133927364,0.7,0,432.0,810.0,0.0,268.0,1,1.2101457025629179,0.0
738,738,0.3464778483908284,0.3,0,375.0,950.0,0.0,155.0,1,1.0302929806030336,0.0
739,739,0.5307485009564548,0.5,0,287.0,597.0,0.0,266.0,1,0.8647587493386253,0.0
740,740,-0.2215859017727222,-0.2,1,325.0,956.0,1.0,329.0,1,0.7715213643064072,0.0
741,741,0.3726085330072846,0.4,0,473.0,618.0,0.0,259.0,1,1.1998971063963015,0.0
742,742,0.2827047584575051,0.3,0,431.0,925.0,0.0,254.0,1,1.0151415016241128,0.0
743,743,0.5961960695439794,0.6,0,461.0,725.0,0.0,404.0,1,0.5404363880089353,0.0
744,744,-0.24738789723879973,-0.2,1,363.0,713.0,1.0,474.0,1,0.5868277342033361,0.0
745,745,-0.3137241330059741,-0.3,1,471.0,893.0,1.0,696.0,1,0.5268786292299373,0.0
746,746,-0.22610611849918882,-0.2,1,319.0,978.0,1.0,263.0,1,0.9212910145552275,0.0
747,747,0.11910405960236048,0.1,0,406.0,963.0,1.0,1011.0,0,0.5111450941326569,0.0
748,748,-0.46890254076777493,-0.5,1,491.0,985.0,1.0,254.0,1,1.2144802013876388,0.0
749,749,-0.3454366549793155,-0.3,1,410.0,502.0,1.0,248.0,1,0.8583160304513752,0.0
750,750,-0.048411777382690646,-0.0,1,289.0,691.0,0.0,210.0,0,0.9063453921699234,0.0
751,751,0.05139444280208827,0.1,0,333.0,753.0,0.0,234.0,1,0.7221229915918732,0.0
752,752,0.14979270469313177,0.1,0,472.0,903.0,0.0,295.0,1,1.0212588825587672,0.0
753,753,-0.9272397011739473,-0.9,1,255.0,565.0,1.0,130.0,1,0.801670062484348,0.0
754,754,0.9571653754268816,1.0,0,442.0,666.0,0.0,192.0,1,0.9833976902929606,0.0
755,755,0.3608467123273107,0.4,0,345.0,958.0,0.0,237.0,1,0.9575243626980525,0.0
756,756,0.3672370475099007,0.4,0,346.0,993.0,0.0,351.0,1,0.5282657386599637,0.0
757,757,0.6348693301478825,0.6,0,346.0,848.0,0.0,266.0,1,0.7951624497159224,0.0
758,758,0.32248012031003914,0.3,0,390.0,673.0,0.0,247.0,1,0.7954587947790358,0.0
759,759,-0.8593790194702593,-0.9,1,405.0,924.0,1.0,201.0,1,0.840802497619436,0.0
760,760,-0.007331067361166177,-0.0,1,383.0,536.0,1.0,1391.0,1,0.5118616190378347,0.0
761,761,-0.06315512764619968,-0.1,1,444.0,883.0,1.0,233.0,1,0.817831583967009,0.0
762,762,-0.0026703666444274354,-0.0,1,457.0,534.0,0.0,609.0,0,0.6099807889460738,0.0
763,763,-0.11303968016780752,-0.1,1,498.0,797.0,1.0,225.0,1,0.6146242751018736,0.0
764,764,-0.4125709705050187,-0.4,1,274.0,930.0,1.0,186.0,1,0.7645240058961975,0.0
765,765,0.07904177310260296,0.1,0,291.0,605.0,1.0,354.0,0,0.7177819350035486,0.0
766,766,0.44465563339781733,0.4,0,396.0,789.0,0.0,165.0,1,1.1475756547515852,0.0
767,767,0.15509554771145773,0.2,0,423.0,738.0,0.0,299.0,1,1.0557162756716427,0.0
768,768,0.6484323948805966,0.6,0,425.0,803.0,0.0,152.0,1,1.152514930996642,0.0
769,769,0.46313591301662993,0.5,0,267.0,942.0,0.0,351.0,1,0.7477721170798226,0.0
770,770,-0.9387100369178241,-0.9,1,339.0,778.0,1.0,173.0,1,0.6876263452571199,0.0
771,771,0.6740833004192703,0.7,0,393.0,938.0,0.0,119.0,1,1.1917972034573612,0.0
772,772,-0.5480344289035723,-0.5,1,315.0,917.0,1.0,228.0,1,0.6288812251472735,0.0
773,773,-0.6394504944831445,-0.6,1,400.0,852.0,1.0,148.0,1,0.9740284867968292,0.0
774,774,0.1757831290088001,0.2,0,443.0,596.0,1.0,211.0,0,0.9917192685608371,0.0
775,775,-0.2800882859864897,-0.3,1,284.0,866.0,1.0,130.0,1,1.2373371320758713,0.0
776,776,0.08698983185128517,0.1,0,330.0,532.0,0.0,288.0,1,1.2130503255222869,0.0
777,777,0.7993124385762029,0.8,0,269.0,959.0,0.0,162.0,1,0.9361562690992811,0.0
778,778,0.5019305742835976,0.5,0,342.0,751.0,0.0,297.0,1,0.6523241724051962,0.0
779,779,0.18635755880433003,0.2,0,257.0,851.0,0.0,232.0,1,1.0291541501599186,0.0
780,780,0.1788119270110604,0.2,0,339.0,892.0,1.0,389.0,0,0.8653570265793434,0.0
781,781,0.5516849682951044,0.6,0,412.0,692.0,0.0,386.0,1,0.517636803437644,0.0
782,782,-0.7036725651828233,-0.7,1,338.0,912.0,1.0,230.0,1,0.859523141191049,0.0
783,783,0.3951449343778002,0.4,0,495.0,645.0,0.0,360.0,1,0.794790496789154,0.0
784,784,-0.4510235690172908,-0.5,1,407.0,564.0,1.0,219.0,1,0.675511576515443,0.0
785,785,0.7000017406834884,0.7,0,380.0,747.0,0.0,123.0,1,1.1320079489163206,0.0
786,786,0.6976840200388503,0.7,0,411.0,913.0,0.0,126.0,1,0.6105652786264837,0.0
787,787,0.23931109150520946,0.2,0,498.0,949.0,0.0,263.0,1,1.0584033613763548,0.0
788,788,0.17011317782372637,0.2,0,408.0,928.0,0.0,204.0,1,0.9276102220960925,0.0
789,789,-0.5969819865185382,-0.6,1,426.0,775.0,1.0,169.0,1,1.2263266509105009,0.0
790,790,0.46357397495810626,0.5,0,366.0,639.0,0.0,245.0,1,1.0871546278461848,0.0
791,791,0.030702901639104274,0.0,0,479.0,730.0,1.0,261.0,0,0.8461385018276996,0.0
792,792,-0.8831861091779165,-0.9,1,457.0,524.0,1.0,169.0,1,1.0498984597504457,0.0
793,793,0.628022153070668,0.6,0,390.0,682.0,0.0,248.0,1,1.2319025233109697,0.0
794,794,-0.6828483189185115,-0.7,1,433.0,632.0,1.0,195.0,1,0.9236250615378343,0.0
795,795,0.2974226806937139,0.3,0,360.0,745.0,0.0,205.0,1,0.7816154356193245,0.0
796,796,0.9122668541043737,0.9,0,403.0,637.0,0.0,230.0,1,0.7406523073188538,0.0
797,797,0.3027673786541285,0.3,0,328.0,504.0,0.0,248.0,1,0.8768347098175712,0.0
798,798,-0.2491594325707387,-0.2,1,346.0,714.0,1.0,210.0,1,0.8526038263639195,0.0
799,799,-0.9741209940860671,-1.0,1,288.0,505.0,1.0,317.0,1,0.8251185433222398,0.0
800,800,0.8006404620518022,0.8,0,293.0,882.0,0.0,225.0,1,0.7456593832919503,0.0
801,801,-0.9970803799449817,-1.0,1,269.0,620.0,1.0,121.0,1,1.1920681563025952,0.0
802,802,-0.8468196670794408,-0.8,1,419.0,989.0,1.0,162.0,1,0.7567938263305835,0.0
803,803,-0.9901437535132498,-1.0,1,364.0,820.0,1.0,206.0,1,0.6575889038038351,0.0
804,804,-0.5432301649449469,-0.5,1,327.0,982.0,1.0,481.0,1,0.5256929319181394,0.0
805,805,0.5925537608173681,0.6,0,382.0,785.0,0.0,163.0,1,0.8265673931016305,0.0
806,806,0.9210605612893679,0.9,0,372.0,683.0,0.0,115.0,1,0.5199465533947285,0.0
807,807,-0.27423776952522627,-0.3,1,256.0,610.0,1.0,194.0,1,1.060876547385859,0.0
808,808,-0.1390967800407934,-0.1,1,330.0,538.0,1.0,382.0,1,0.9330303072971102,0.0
809,809,0.3925028888595492,0.4,0,446.0,746.0,0.0,158.0,1,0.683149401120955,0.0
810,810,0.04853036594725224,0.0,0,491.0,526.0,1.0,223.0,0,1.1247183802145329,0.0
811,811,-0.18819915508416107,-0.2,1,328.0,596.0,1.0,196.0,1,1.0929444199365546,0.0
812,812,0.322800261258692,0.3,0,495.0,973.0,0.0,152.0,1,1.073119119563208,0.0
813,813,0.2893247950109421,0.3,0,432.0,584.0,0.0,264.0,1,0.8024171910852137,0.0
814,814,-0.3853175877823731,-0.4,1,295.0,661.0,1.0,104.0,1,0.9556119418821247,0.0
815,815,-0.35669857369274305,-0.4,1,403.0,676.0,1.0,301.0,1,0.6219156857280381,0.0
816,816,-0.9733673977381094,-1.0,1,404.0,594.0,1.0,122.0,1,1.1836603723432202,0.0
817,817,-0.6341932087445792,-0.6,1,434.0,524.0,1.0,192.0,1,0.6124569815969039,0.0
818,818,0.48414290273727345,0.5,0,353.0,991.0,0.0,206.0,1,0.9681349405726983,0.0
819,819,0.23514225132311695,0.2,0,281.0,882.0,0.0,157.0,1,1.1243212431732443,0.0
820,820,0.6740139506427831,0.7,0,289.0,934.0,0.0,167.0,1,1.028431881656469,0.0
821,821,0.5464808393863894,0.5,0,407.0,587.0,0.0,326.0,1,0.5769865818459727,0.0
822,822,-0.7081238126012501,-0.7,1,273.0,538.0,1.0,229.0,1,0.6776058662042016,0.0
823,823,0.8955198639949742,0.9,0,318.0,613.0,0.0,199.0,1,1.2251232030501558,0.0
824,824,-0.8268140005946589,-0.8,1,452.0,966.0,1.0,132.0,1,0.767864072267145,0.0
825,825,-0.05807771965030217,-0.1,1,336.0,645.0,1.0,179.0,1,1.2309587357786418,0.0
826,826,0.6184976173429972,0.6,0,268.0,766.0,0.0,216.0,1,1.0312853024965145,0.0
827,827,0.47593844833103827,0.5,0,278.0,867.0,0.0,275.0,1,1.2224926591777845,0.0
828,828,0.9468984522942236,0.9,0,490.0,542.0,0.0,218.0,1,0.7653708205164149,0.0
829,829,0.7479521864688727,0.7,0,461.0,554.0,0.0,145.0,1,0.8943511943472442,0.0
830,830,-0.49892137704494055,-0.5,1,313.0,557.0,1.0,170.0,1,0.9924673525722535,0.0
831,831,0.7674142897369589,0.8,0,394.0,978.0,0.0,138.0,1,0.7222981848284254,0.0
832,832,0.7106532649063999,0.7,0,424.0,695.0,0.0,181.0,1,1.0742243161870022,0.0
833,833,0.4358885049002341,0.4,0,482.0,655.0,0.0,233.0,1,0.9424013285482273,0.0
834,834,-0.8706241967164776,-0.9,1,295.0,845.0,1.0,160.0,1,0.9101839339612124,0.0
835,835,0.26681359416092265,0.3,0,450.0,532.0,1.0,348.0,0,0.8688463475248438,0.0
836,836,0.568874989666591,0.6,0,268.0,583.0,0.0,289.0,1,0.9090712638780474,0.0
837,837,-0.22411229209707018,-0.2,1,488.0,699.0,1.0,243.0,1,0.9469474738285089,0.0
838,838,-0.4029540280161792,-0.4,1,449.0,731.0,1.0,170.0,1,0.9990478095078703,0.0
839,839,0.6164659691237886,0.6,0,361.0,983.0,0.0,246.0,1,0.9783910243529028,0.0
840,840,-0.6845528806264323,-0.7,1,355.0,850.0,1.0,235.0,1,1.0385332894829031,0.0
841,841,0.33364043726163417,0.3,0,259.0,622.0,0.0,339.0,1,0.8120724506245014,0.0
842,842,-0.701129711570561,-0.7,1,367.0,652.0,1.0,261.0,1,1.203174843484654,0.0
843,843,-0.6790385115614721,-0.7,1,307.0,905.0,1.0,158.0,1,0.9333753456026268,0.0
844,844,-0.650497441895483,-0.7,1,356.0,880.0,1.0,114.0,1,1.0072024836630753,0.0
845,845,0.41040771674067567,0.4,0,337.0,935.0,0.0,328.0,1,1.0825881773250345,0.0
846,846,-0.8734255739471166,-0.9,1,270.0,565.0,1.0,155.0,1,0.6815227617838262,0.0
847,847,-0.8677991066203454,-0.9,1,270.0,528.0,1.0,232.0,1,0.776473521750151,0.0
848,848,-0.265655153753082,-0.3,1,351.0,939.0,1.0,170.0,1,1.158520354954781,0.0
849,849,0.15036876709185298,0.2,0,346.0,893.0,0.0,391.0,1,0.7143338878176898,0.0
850,850,-0.730775900647733,-0.7,1,355.0,819.0,1.0,186.0,1,1.164536847301337,0.0
851,851,-0.9080555093886935,-0.9,1,314.0,759.0,1.0,107.0,1,1.0695721457299427,0.0
852,852,-0.25213110946024964,-0.3,1,435.0,960.0,1.0,285.0,1,0.808729295897132,0.0
853,853,0.30213899445095094,0.3,0,257.0,918.0,0.0,835.0,1,0.5097197278523319,0.0
854,854,-0.5065655901107586,-0.5,1,405.0,676.0,1.0,339.0,1,0.6307902845916729,0.0
855,855,0.5778111569744235,0.6,0,445.0,868.0,0.0,267.0,1,0.6933528282675541,0.0
856,856,0.7845472230961914,0.8,0,331.0,550.0,0.0,239.0,1,0.7693012705822893,0.0
857,857,0.46194375417371925,0.5,0,476.0,957.0,0.0,167.0,1,0.6827170879729819,0.0
858,858,0.8465710808635023,0.8,0,279.0,815.0,0.0,306.0,1,0.5391915775100413,0.0
859,859,-0.5871469869408377,-0.6,1,378.0,949.0,1.0,103.0,1,1.1732202074907607,0.0
860,860,-0.06622279913696794,-0.1,1,496.0,791.0,1.0,333.0,1,1.1190097279654079,0.0
861,861,0.05637769544484228,0.1,0,279.0,967.0,1.0,674.0,0,1.196377174678271,0.0
862,862,-0.918255264636687,-0.9,1,426.0,631.0,1.0,233.0,1,0.6133392706481464,0.0
863,863,-0.9769486059738923,-1.0,1,413.0,913.0,1.0,164.0,1,0.7134745721266398,0.0
864,864,0.7468389108935811,0.7,0,318.0,860.0,0.0,162.0,1,0.6223414136837306,0.0
865,865,0.5289725768352918,0.5,0,372.0,641.0,0.0,317.0,1,0.6347195989110095,0.0
866,866,-0.3880005670452793,-0.4,1,364.0,950.0,1.0,266.0,1,0.5277054852899583,0.0
867,867,0.12085993458312894,0.1,0,289.0,781.0,1.0,170.0,0,1.2112951889628296,0.0
868,868,-0.6817014301048134,-0.7,1,310.0,739.0,1.0,171.0,1,0.65656539501611,0.0
869,869,-0.27485846388676394,-0.3,1,270.0,909.0,1.0,261.0,1,0.9842535760176732,0.0
870,870,0.11352253505837062,0.1,0,428.0,979.0,0.0,473.0,1,0.6022824028449372,0.0
871,871,-0.8416641842040955,-0.8,1,399.0,862.0,1.0,229.0,1,0.6350125143709282,0.0
872,872,-0.3412627069673584,-0.3,1,277.0,970.0,1.0,293.0,1,0.805624752086755,0.0
873,873,0.018631505729420406,0.0,0,372.0,753.0,1.0,2045.0,0,0.5213510022621484,0.0
874,874,-0.5209321330384347,-0.5,1,459.0,625.0,1.0,226.0,1,1.0084692893614626,0.0
875,875,0.9170166407468259,0.9,0,337.0,608.0,0.0,195.0,1,1.1609908667834754,0.0
876,876,-0.44652816716024546,-0.4,1,374.0,719.0,1.0,247.0,1,0.5085032033015046,0.0
877,877,-0.052703574167131784,-0.1,1,450.0,875.0,1.0,395.0,1,0.9104334834539224,0.0
878,878,0.6398195618969391,0.6,0,328.0,735.0,0.0,247.0,1,1.1763181060285444,0.0
879,879,-0.5130831933967834,-0.5,1,387.0,611.0,1.0,142.0,1,1.164011904905482,0.0
880,880,-0.41798530337761286,-0.4,1,411.0,807.0,1.0,262.0,1,0.7946068652499585,0.0
881,881,0.3961210910795758,0.4,0,467.0,752.0,0.0,251.0,1,0.8537095304932689,0.0
882,882,-0.21886102950333686,-0.2,1,486.0,527.0,0.0,317.0,0,0.8798848638939826,0.0
883,883,-0.2764721842478801,-0.3,1,479.0,887.0,1.0,254.0,1,0.8134030056964958,0.0
884,884,-0.9491389717146523,-0.9,1,434.0,614.0,1.0,132.0,1,0.7232212634899677,0.0
885,885,0.17442232548508474,0.2,0,320.0,648.0,0.0,192.0,1,1.1490687330924247,0.0
886,886,-0.4591708965900956,-0.5,1,263.0,723.0,1.0,274.0,1,0.6396275030002723,0.0
887,887,0.3483964570982814,0.3,0,367.0,973.0,0.0,410.0,1,0.6453151791559463,0.0
888,888,0.7029268903460291,0.7,0,267.0,716.0,0.0,257.0,1,0.7666934514904571,0.0
889,889,-0.9227310557391168,-0.9,1,456.0,996.0,1.0,238.0,1,0.6392226981928997,0.0
890,890,0.8763096335106824,0.9,0,465.0,962.0,0.0,163.0,1,1.133215766071614,0.0
891,891,0.7288941181335582,0.7,0,266.0,970.0,0.0,194.0,1,1.0741970950691577,0.0
892,892,0.17799792226030342,0.2,0,347.0,737.0,0.0,336.0,1,0.7354834378006196,0.0
893,893,0.4832969171814736,0.5,0,256.0,837.0,0.0,257.0,1,0.8382057066677157,0.0
894,894,-0.13437124649888244,-0.1,1,309.0,860.0,1.0,171.0,1,0.9765825965542634,0.0
895,895,0.6924859150104672,0.7,0,372.0,886.0,0.0,232.0,1,1.138260110799783,0.0
896,896,0.04691817785956953,0.0,0,306.0,567.0,0.0,337.0,1,0.6969517065520522,0.0
897,897,0.8984706811621994,0.9,0,459.0,707.0,0.0,94.0,1,0.7630642654949795,0.0
898,898,0.2606585246655153,0.3,0,316.0,644.0,0.0,560.0,1,0.5425747339548902,0.0
899,899,0.04105202470874869,0.0,0,281.0,672.0,1.0,227.0,0,1.0604180687825857,0.0
900,900,0.026246282475895333,0.0,0,416.0,571.0,1.0,373.0,0,0.8783908097781645,0.0
901,901,-0.619052905753914,-0.6,1,360.0,642.0,1.0,298.0,1,0.54807242966876,0.0
902,902,-0.9522723029491496,-1.0,1,467.0,897.0,1.0,226.0,1,1.1180381127966863,0.0
903,903,0.3418678826404775,0.3,0,333.0,957.0,0.0,300.0,1,0.7088732708575116,0.0
904,904,-0.0797262017999123,-0.1,1,358.0,506.0,0.0,406.0,0,1.0813868964733073,0.0
905,905,0.9580487323101714,1.0,0,408.0,563.0,0.0,169.0,1,0.8694865319696601,0.0
906,906,-0.7251732327887233,-0.7,1,305.0,716.0,1.0,189.0,1,1.0256676715629478,0.0
907,907,-0.6807402340417701,-0.7,1,287.0,527.0,1.0,166.0,1,1.0249266830633958,0.0
908,908,0.28814696162046505,0.3,0,314.0,895.0,0.0,221.0,1,0.7392688973734989,0.0
909,909,-0.3253846287126274,-0.3,1,464.0,584.0,1.0,342.0,1,0.5738350793347017,0.0
910,910,0.7305561286819864,0.7,0,294.0,978.0,0.0,248.0,1,0.9258429544982631,0.0
911,911,-0.8574787337101093,-0.9,1,458.0,802.0,1.0,130.0,1,0.6896259017793986,0.0
912,912,0.9986751482652061,1.0,0,253.0,730.0,0.0,147.0,1,0.7709868749701155,0.0
913,913,0.5161746795699576,0.5,0,488.0,829.0,0.0,383.0,1,1.1713752081059483,0.0
914,914,0.4684461923370393,0.5,0,304.0,805.0,0.0,231.0,1,1.090558140462663,0.0
915,915,-0.6897189229415899,-0.7,1,303.0,510.0,1.0,237.0,1,1.0468754799587925,0.0
916,916,-0.003141624534978016,-0.0,1,495.0,701.0,1.0,454.0,1,0.5127014119457787,0.0
917,917,-0.9933997099428997,-1.0,1,350.0,780.0,1.0,200.0,1,1.159503207531339,0.0
918,918,0.4222959372967039,0.4,0,461.0,748.0,0.0,161.0,1,0.6587711367648749,0.0
919,919,-0.6843275691133328,-0.7,1,288.0,507.0,1.0,275.0,1,0.5728790403846472,0.0
920,920,-0.1166132540200513,-0.1,1,392.0,507.0,1.0,181.0,1,0.9649512510858165,0.0
921,921,0.651911692583772,0.7,0,427.0,569.0,0.0,174.0,1,0.9923769409629413,0.0
922,922,-0.31322091964652965,-0.3,1,354.0,599.0,1.0,137.0,1,0.7458898506429047,0.0
923,923,-0.27584759973268813,-0.3,1,417.0,946.0,1.0,407.0,1,0.646077262882955,0.0
924,924,0.7012560389131177,0.7,0,424.0,717.0,0.0,119.0,1,1.1457144811074014,0.0
925,925,0.09154018119336516,0.1,0,388.0,899.0,1.0,243.0,0,1.1709368184647442,0.0
926,926,-0.11200763682143822,-0.1,1,477.0,666.0,1.0,257.0,1,1.0683932216112448,0.0
927,927,0.8219984653259973,0.8,0,393.0,883.0,0.0,114.0,1,0.7452685938702791,0.0
928,928,0.6881065658145404,0.7,0,433.0,947.0,0.0,160.0,1,1.2185837744046375,0.0
929,929,0.04387017786937064,0.0,0,401.0,790.0,1.0,329.0,0,1.1805717655655799,0.0
930,930,-0.44670499651985685,-0.4,1,415.0,646.0,1.0,159.0,1,0.7981393467349526,0.0
931,931,-0.28628351161121923,-0.3,1,490.0,659.0,1.0,301.0,1,0.7876589647274181,0.0
932,932,-0.42150481140609286,-0.4,1,270.0,704.0,1.0,156.0,1,0.9421773437613493,0.0
933,933,0.8001062818072402,0.8,0,457.0,757.0,0.0,246.0,1,0.9959938791513435,0.0
934,934,0.39358981363880097,0.4,0,396.0,740.0,0.0,184.0,1,1.1875210950161046,0.0
935,935,0.9957687912731639,1.0,0,354.0,835.0,0.0,211.0,1,0.8252835514098826,0.0
936,936,0.1519344269976064,0.2,0,315.0,757.0,0.0,198.0,1,1.0304028970033654,0.0
937,937,-0.3862790979901327,-0.4,1,287.0,890.0,1.0,223.0,1,1.1700297453780135,0.0
938,938,0.39773454724359025,0.4,0,352.0,880.0,0.0,138.0,1,1.0178214943659802,0.0
939,939,-0.789931841024647,-0.8,1,289.0,707.0,1.0,134.0,1,0.7393405911669884,0.0
940,940,-0.8860441477304621,-0.9,1,337.0,786.0,1.0,227.0,1,0.6484024501869272,0.0
941,941,-0.7515182366522459,-0.8,1,353.0,880.0,1.0,257.0,1,0.5358646736302298,0.0
942,942,0.48145352668908803,0.5,0,270.0,970.0,0.0,200.0,1,1.00497795687124,0.0
943,943,-0.6988310477643969,-0.7,1,299.0,730.0,1.0,271.0,1,0.6104973975705221,0.0
944,944,0.46056835613225333,0.5,0,358.0,872.0,0.0,260.0,1,1.0369314852995,0.0
945,945,-0.8595184102247448,-0.9,1,476.0,981.0,1.0,143.0,1,0.5699471294023767,0.0
946,946,0.4519934630125204,0.5,0,390.0,728.0,0.0,232.0,1,0.6150519166114172,0.0
947,947,-0.5003848545148635,-0.5,1,382.0,512.0,1.0,146.0,1,1.2093030186797507,0.0
948,948,0.963059243014778,1.0,0,325.0,739.0,0.0,226.0,1,0.664457695843808,0.0
949,949,0.5552502737363887,0.6,0,462.0,793.0,0.0,155.0,1,1.217309761254663,0.0
950,950,0.17859078074592194,0.2,0,267.0,871.0,0.0,462.0,1,0.6005172014040911,0.0
951,951,-0.8837689208070261,-0.9,1,338.0,643.0,1.0,149.0,1,0.8215771314948402,0.0
952,952,0.740373385208895,0.7,0,325.0,974.0,0.0,331.0,1,0.5131509878776784,0.0
953,953,-0.04953609294634642,-0.0,1,309.0,523.0,1.0,368.0,1,0.5497111689632426,0.0
954,954,-0.23896712629618966,-0.2,1,259.0,791.0,1.0,240.0,1,0.987274841260664,0.0
955,955,0.9016693990189184,0.9,0,331.0,862.0,0.0,157.0,1,0.8324225037676173,0.0
956,956,-0.7836980871175805,-0.8,1,257.0,768.0,1.0,165.0,1,0.816035771746944,0.0
957,957,0.5184621832756839,0.5,0,371.0,827.0,0.0,242.0,1,0.9385317237991825,0.0
958,958,0.11068371838823254,0.1,0,456.0,590.0,1.0,314.0,0,1.2271519269197113,0.0
959,959,0.24805289004616538,0.2,0,384.0,937.0,0.0,289.0,1,0.8371628614431594,0.0
960,960,-0.856998652444795,-0.9,1,327.0,860.0,1.0,173.0,1,0.8291836059747788,0.0
961,961,-0.10253674644998467,-0.1,1,333.0,511.0,1.0,216.0,1,0.7513054314735333,0.0
962,962,-0.9866245637596411,-1.0,1,411.0,838.0,1.0,201.0,1,0.5010753057425181,0.0
963,963,0.11136118448315013,0.1,0,270.0,891.0,0.0,359.0,1,0.9456274949204562,0.0
964,964,-0.5650582575697538,-0.6,1,306.0,692.0,1.0,202.0,1,1.0242790748966173,0.0
965,965,0.6420821049045935,0.6,0,377.0,770.0,0.0,183.0,1,0.6074434164779633,0.0
966,966,-0.00660596686263748,-0.0,1,386.0,731.0,1.0,263.0,1,0.7758631281422057,0.0
967,967,0.11914142652820447,0.1,0,398.0,809.0,0.0,353.0,1,0.9158289269454696,0.0
968,968,-0.5176054411686508,-0.5,1,349.0,904.0,1.0,217.0,1,0.9609795029740319,0.0
969,969,-0.7582933639979197,-0.8,1,253.0,750.0,1.0,157.0,1,0.7207526975507679,0.0
970,970,0.8044432643216128,0.8,0,258.0,945.0,0.0,317.0,1,1.248012459884962,0.0
971,971,-0.39102669255664013,-0.4,1,475.0,502.0,1.0,303.0,1,0.8132285053353482,0.0
972,972,-0.7034070596576041,-0.7,1,472.0,868.0,1.0,140.0,1,0.7989246103643239,0.0
973,973,0.8660648231614381,0.9,0,494.0,971.0,0.0,175.0,1,0.6019106777230685,0.0
974,974,-0.3604115926939193,-0.4,1,348.0,769.0,1.0,223.0,1,0.7735422188992704,0.0
975,975,-0.6280731809579132,-0.6,1,290.0,791.0,1.0,229.0,1,0.8170181278808932,0.0
976,976,-0.10114692909635692,-0.1,1,332.0,764.0,1.0,394.0,1,0.7420044259317805,0.0
977,977,0.5799377365903089,0.6,0,458.0,757.0,0.0,185.0,1,0.9168023135705745,0.0
978,978,0.5058920081355458,0.5,0,479.0,502.0,0.0,399.0,1,0.5646099538633126,0.0
979,979,-0.36165986444425613,-0.4,1,464.0,910.0,1.0,266.0,1,0.6577603293996552,0.0
980,980,-0.17930751019861368,-0.2,1,396.0,654.0,1.0,250.0,1,0.6074165154303945,0.0
981,981,0.5789018196368361,0.6,0,388.0,695.0,0.0,187.0,1,0.7801384372319133,0.0
982,982,-0.6032332060987684,-0.6,1,346.0,581.0,1.0,233.0,1,0.6247175655818803,0.0
983,983,0.27480616824502735,0.3,0,450.0,758.0,0.0,312.0,1,0.7236688533055077,0.0
984,984,0.12378991042981835,0.1,0,419.0,843.0,0.0,268.0,1,1.0911578755075713,0.0
985,985,0.15426612523959093,0.2,0,318.0,919.0,0.0,173.0,1,1.1035962415162186,0.0
986,986,-0.802532935689287,-0.8,1,478.0,905.0,1.0,137.0,1,1.1366647306307256,0.0
987,987,-0.05338045747398046,-0.1,1,422.0,933.0,1.0,185.0,1,1.000673938687541,0.0
988,988,-0.28643169832580395,-0.3,1,454.0,950.0,1.0,346.0,1,0.6386027141257612,0.0
989,989,0.4255293907205151,0.4,0,420.0,999.0,0.0,221.0,1,0.8971124744662264,0.0
990,990,0.5642775222730583,0.6,0,402.0,582.0,0.0,176.0,1,1.0234455155959867,0.0
991,991,-0.9594063394821457,-1.0,1,302.0,946.0,1.0,182.0,1,1.0635987638132307,0.0
992,992,0.42993183138741853,0.4,0,324.0,642.0,0.0,334.0,1,1.024739533116192,0.0
993,993,-0.5516432501646336,-0.6,1,278.0,632.0,1.0,190.0,1,0.8026869786333425,0.0
994,994,0.5610392354043789,0.6,0,387.0,926.0,0.0,237.0,1,0.8964663011448198,0.0
995,995,0.3402577720205542,0.3,0,333.0,736.0,0.0,191.0,1,1.242791052943592,0.0
996,996,0.7261636592912502,0.7,0,268.0,860.0,0.0,212.0,1,0.7129892373694195,0.0
997,997,-0.4419677606993997,-0.4,1,459.0,949.0,1.0,172.0,1,0.5523908822193002,0.0
998,998,0.668713675236831,0.7,0,389.0,679.0,0.0,212.0,1,1.1888798166237335,0.0
999,999,-0.258682102030928,-0.3,1,312.0,635.0,1.0,503.0,1,0.5825183507807699,0.0
1000,1000,0.5842030886766176,0.6,0,295.0,769.0,0.0,286.0,1,0.810904612873707,0.0
1001,1001,0.4326728931153927,0.4,0,250.0,587.0,0.0,253.0,1,0.7881297251872469,0.0
1002,1002,0.4091750862065726,0.4,0,369.0,847.0,0.0,344.0,1,0.9177164976881865,0.0
1003,1003,0.07414751083915494,0.1,0,258.0,981.0,1.0,331.0,0,0.7993973934304851,0.0
1004,1004,0.2826814619863751,0.3,0,390.0,882.0,0.0,358.0,1,0.5415324456285868,0.0
1005,1005,0.6181545586391619,0.6,0,350.0,710.0,0.0,240.0,1,0.8215451105743501,0.0
1006,1006,0.8399421552073503,0.8,0,424.0,893.0,0.0,143.0,1,0.8768093909598331,0.0
1007,1007,0.6045871191764118,0.6,0,435.0,644.0,0.0,211.0,1,1.0765187300868004,0.0
1008,1008,0.44426446346282056,0.4,0,380.0,947.0,0.0,163.0,1,0.9329066987534693,0.0
1009,1009,-0.9522628771684729,-1.0,1,403.0,790.0,1.0,177.0,1,0.851273091452063,0.0
1010,1010,-0.4220739642337856,-0.4,1,415.0,930.0,1.0,255.0,1,0.9880556130533995,0.0
1011,1011,-0.46489936508086416,-0.5,1,261.0,856.0,1.0,213.0,1,1.2112533052476626,0.0
1012,1012,-0.024083919739847026,-0.0,1,298.0,639.0,1.0,213.0,1,1.2307987971130658,0.0
1013,1013,-0.8882494257573883,-0.9,1,326.0,594.0,1.0,110.0,1,1.097527846164843,0.0
1014,1014,0.14821423760408936,0.1,0,372.0,513.0,0.0,275.0,1,0.819729265810065,0.0
1015,1015,0.41124482666177875,0.4,0,455.0,691.0,0.0,714.0,1,0.5513142050124543,0.0
1016,1016,0.46039237369870833,0.5,0,447.0,855.0,0.0,198.0,1,0.8933861077295814,0.0
1017,1017,-0.39624504608929434,-0.4,1,432.0,580.0,1.0,218.0,1,1.1603343061803502,0.0
1018,1018,-0.29061775323119377,-0.3,1,478.0,904.0,1.0,378.0,1,0.852954010622672,0.0
1019,1019,0.5780210423780165,0.6,0,371.0,598.0,0.0,171.0,1,0.8860720669657851,0.0
1020,1020,-0.67947099774389,-0.7,1,307.0,775.0,1.0,198.0,1,1.2279183190309448,0.0
1021,1021,-0.927784748326042,-0.9,1,354.0,515.0,1.0,191.0,1,0.5673524734816725,0.0
1022,1022,-0.8741753951301028,-0.9,1,286.0,715.0,1.0,109.0,1,0.7669484075418135,0.0
1023,1023,0.6358404756613409,0.6,0,497.0,792.0,0.0,251.0,1,1.0640361595850216,0.0
1024,1024,0.09641174515584039,0.1,0,397.0,837.0,0.0,266.0,1,0.8492668085631834,0.0
1025,1025,-0.11622129625835909,-0.1,1,419.0,578.0,0.0,433.0,0,0.9180099555276132,0.0
1026,1026,-0.39765355678737335,-0.4,1,358.0,517.0,1.0,265.0,1,0.6213410586018765,0.0
1027,1027,-0.585640622286046,-0.6,1,348.0,613.0,1.0,209.0,1,0.6623346879497682,0.0
1028,1028,-0.3675224752157824,-0.4,1,337.0,987.0,1.0,126.0,1,0.9893289725287697,0.0
1029,1029,0.1115903395601674,0.1,0,449.0,798.0,0.0,263.0,1,0.8442856222769956,0.0
1030,1030,0.5736498185158179,0.6,0,290.0,501.0,0.0,209.0,1,1.1308653800777173,0.0
1031,1031,0.05669305159651228,0.1,0,486.0,971.0,1.0,643.0,0,0.5448827957156535,0.0
1032,1032,0.3881453862365547,0.4,0,330.0,575.0,0.0,255.0,1,0.9386090504166315,0.0
1033,1033,0.9576448104505706,1.0,0,251.0,765.0,0.0,284.0,1,0.5054224950837015,0.0
1034,1034,0.7848298798551532,0.8,0,277.0,830.0,0.0,123.0,1,1.095228567755803,0.0
1035,1035,0.08378169206072816,0.1,0,462.0,575.0,1.0,293.0,0,1.196463023337725,0.0
1036,1036,-0.8020128191380234,-0.8,1,365.0,674.0,1.0,171.0,1,1.1037982150866712,0.0
1037,1037,0.4963317926399029,0.5,0,488.0,513.0,0.0,379.0,1,1.0766024900718794,0.0
1038,1038,0.25742308241223233,0.3,0,309.0,676.0,0.0,535.0,1,0.5340184727963578,0.0
1039,1039,0.1410384571568848,0.1,0,379.0,685.0,0.0,156.0,1,1.0213002157899553,0.0
1040,1040,0.20692194761089278,0.2,0,278.0,789.0,0.0,323.0,1,0.8702279775247433,0.0
1041,1041,-0.2995033179896174,-0.3,1,382.0,547.0,1.0,171.0,1,0.7707734619096221,0.0
1042,1042,0.9874427475090226,1.0,0,306.0,797.0,0.0,187.0,1,0.7829891834731978,0.0
1043,1043,-0.5805484368630307,-0.6,1,424.0,573.0,1.0,133.0,1,1.1469681601740636,0.0
1044,1044,-0.76289987083934,-0.8,1,309.0,841.0,1.0,170.0,1,0.5417346946627877,0.0
1045,1045,0.32487740361212225,0.3,0,416.0,797.0,0.0,827.0,1,0.5529628476375812,0.0
1046,1046,0.8401565674221638,0.8,0,327.0,976.0,0.0,237.0,1,0.612562041098059,0.0
1047,1047,0.23737626082422114,0.2,0,492.0,935.0,0.0,363.0,1,0.7443152213162751,0.0
1048,1048,-0.28913785451951135,-0.3,1,383.0,670.0,1.0,227.0,1,0.6715298833216259,0.0
1049,1049,0.24417566203729302,0.2,0,371.0,997.0,0.0,292.0,1,0.587439157363947,0.0
1050,1050,0.6885043285217023,0.7,0,360.0,530.0,0.0,160.0,1,0.9292083616688549,0.0
1051,1051,-0.6627966666860439,-0.7,1,344.0,958.0,1.0,148.0,1,0.8832742754549904,0.0
1052,1052,-0.4461280440472095,-0.4,1,452.0,599.0,1.0,219.0,1,0.8837656364152647,0.0
1053,1053,-0.31228355141813546,-0.3,1,255.0,644.0,1.0,491.0,1,0.6806559794320712,0.0
1054,1054,-0.34348350523335425,-0.3,1,392.0,515.0,1.0,233.0,1,0.6353342641603776,0.0
1055,1055,0.2707163954923919,0.3,0,487.0,991.0,1.0,332.0,0,0.7700291597101284,0.0
1056,1056,-0.6518577967306547,-0.7,1,317.0,871.0,1.0,192.0,1,1.1706513746404132,0.0
1057,1057,0.3467199673779653,0.3,0,270.0,565.0,0.0,355.0,1,0.5325349386907594,0.0
1058,1058,0.1494014776429673,0.1,0,372.0,606.0,0.0,142.0,1,0.9319971133170354,0.0
1059,1059,-0.986063664641714,-1.0,1,272.0,717.0,1.0,221.0,1,0.6108587676943584,0.0
1060,1060,-0.12513184215124817,-0.1,1,382.0,520.0,1.0,258.0,1,1.14600771295658,0.0
1061,1061,0.2531411349484418,0.3,0,383.0,862.0,1.0,285.0,0,0.7659135617628745,0.0
1062,1062,0.13606587759252342,0.1,0,346.0,877.0,1.0,297.0,0,0.7283129486850249,0.0
1063,1063,0.32527675910330056,0.3,0,414.0,579.0,0.0,257.0,1,1.2465730227833833,0.0
1064,1064,0.3465009044651801,0.3,0,280.0,690.0,0.0,190.0,1,0.7714026459877947,0.0
1065,1065,0.688810492546664,0.7,0,467.0,708.0,0.0,265.0,1,0.8115312467164004,0.0
1066,1066,-0.20942406030806326,-0.2,1,334.0,535.0,1.0,241.0,1,1.1204439120002523,0.0
1067,1067,-0.565620885674454,-0.6,1,303.0,539.0,1.0,218.0,1,0.7986401378659922,0.0
1068,1068,0.6576842004106933,0.7,0,451.0,999.0,0.0,350.0,1,1.0401035467321154,0.0
1069,1069,-0.9860042215953555,-1.0,1,401.0,633.0,1.0,186.0,1,1.0541273347427067,0.0
1070,1070,-0.857574138124471,-0.9,1,283.0,557.0,1.0,140.0,1,0.7814308274032671,0.0
1071,1071,0.9401713700274741,0.9,0,287.0,759.0,0.0,114.0,1,1.0740585308807065,0.0
1072,1072,0.683670738265294,0.7,0,490.0,902.0,0.0,208.0,1,1.1210178361408043,0.0
1073,1073,-0.4541729070941747,-0.5,1,412.0,690.0,1.0,228.0,1,0.9307254940481022,0.0
1074,1074,-0.43356063476821305,-0.4,1,312.0,908.0,1.0,180.0,1,1.0771025764555704,0.0
1075,1075,-0.3617085656063588,-0.4,1,256.0,654.0,1.0,210.0,1,0.8564697176624649,0.0
1076,1076,-0.706765528001537,-0.7,1,407.0,743.0,1.0,280.0,1,0.5845148767750542,0.0
1077,1077,-0.5890235478903605,-0.6,1,390.0,673.0,1.0,227.0,1,0.6388749129582024,0.0
1078,1078,0.2838675203460608,0.3,0,495.0,530.0,0.0,215.0,1,0.9842906945521926,0.0
1079,1079,0.6937293974424745,0.7,0,368.0,755.0,0.0,217.0,1,1.0228620947515832,0.0
1080,1080,0.41333034590849294,0.4,0,398.0,652.0,0.0,240.0,1,0.9241455096805177,0.0
1081,1081,0.08313428138072587,0.1,0,276.0,610.0,0.0,414.0,1,0.6026394488643017,0.0
1082,1082,-0.6141311087594974,-0.6,1,471.0,595.0,1.0,174.0,1,1.1007955977554076,0.0
1083,1083,-0.9234867369799133,-0.9,1,359.0,911.0,1.0,160.0,1,1.0664124651246496,0.0
1084,1084,-0.9667249600031185,-1.0,1,491.0,888.0,1.0,191.0,1,0.6115086861473613,0.0
1085,1085,0.4596096354997745,0.5,0,373.0,547.0,0.0,190.0,1,1.0607940517398067,0.0
1086,1086,0.5405084363445003,0.5,0,382.0,794.0,0.0,204.0,1,1.1877901267067927,0.0
1087,1087,-0.7531481134183005,-0.8,1,490.0,731.0,1.0,299.0,1,0.5193888559951632,0.0
1088,1088,-0.5247399989947104,-0.5,1,486.0,764.0,1.0,260.0,1,0.785614349354696,0.0
1089,1089,0.32467483420513665,0.3,0,274.0,984.0,1.0,162.0,0,1.136248759868236,0.0
1090,1090,-0.9909538895379431,-1.0,1,461.0,930.0,1.0,189.0,1,0.5758373832309586,0.0
1091,1091,0.10007425157549021,0.1,0,278.0,590.0,1.0,232.0,0,1.041559340843217,0.0
1092,1092,-0.9584207159743139,-1.0,1,439.0,722.0,1.0,209.0,1,0.555202295153519,0.0
1093,1093,-0.35446155495863896,-0.4,1,311.0,556.0,1.0,173.0,1,1.1004523400118655,0.0
1094,1094,0.9961540602252121,1.0,0,404.0,743.0,0.0,203.0,1,1.051930027257678,0.0
1095,1095,0.7418870330014096,0.7,0,399.0,799.0,0.0,232.0,1,0.712760235273939,0.0
1096,1096,0.174367053234175,0.2,0,446.0,908.0,0.0,206.0,1,1.2347752937918803,0.0
1097,1097,0.39374574583497113,0.4,0,496.0,711.0,0.0,173.0,1,1.2239320855738705,0.0
1098,1098,0.8937037957372183,0.9,0,488.0,740.0,0.0,272.0,1,1.2191302692405137,0.0
1099,1099,-0.6330629980033828,-0.6,1,268.0,629.0,1.0,283.0,1,1.1590339514517618,0.0
1100,1100,-0.669055872259084,-0.7,1,370.0,660.0,1.0,250.0,1,1.1149787086004275,0.0
1101,1101,0.48916892716631,0.5,0,277.0,914.0,0.0,279.0,1,0.8748928383298993,0.0
1102,1102,0.28761724037285874,0.3,0,303.0,560.0,0.0,247.0,1,0.9278380649806062,0.0
1103,1103,-0.6931683523240564,-0.7,1,334.0,661.0,1.0,105.0,1,0.739205818684919,0.0
1104,1104,0.9830060412664992,1.0,0,485.0,518.0,0.0,177.0,1,1.1769413519846883,0.0
1105,1105,-0.5342342047294455,-0.5,1,466.0,953.0,1.0,181.0,1,0.7689810977423468,0.0
1106,1106,0.25465968297845243,0.3,0,436.0,777.0,0.0,167.0,1,1.0860509602837536,0.0
1107,1107,0.4276372199893199,0.4,0,493.0,722.0,1.0,225.0,0,1.0237449892802433,0.0
1108,1108,0.49375336019312943,0.5,0,497.0,885.0,0.0,268.0,1,0.6579016556340447,0.0
1109,1109,0.6713845498606872,0.7,0,305.0,677.0,0.0,278.0,1,1.039262640691578,0.0
1110,1110,0.2424137803552484,0.2,0,290.0,641.0,1.0,499.0,0,1.106351675186688,0.0
1111,1111,0.629175025635285,0.6,0,355.0,548.0,0.0,227.0,1,0.5371999206020245,0.0
1112,1112,0.8398763303056571,0.8,0,373.0,511.0,0.0,176.0,1,1.2406155988571084,0.0
1113,1113,-0.2747232073949495,-0.3,1,483.0,732.0,1.0,345.0,1,1.0325568218349157,0.0
1114,1114,0.9230100157181227,0.9,0,293.0,956.0,0.0,111.0,1,1.0472704716307697,0.0
1115,1115,0.5104276757966162,0.5,0,287.0,663.0,0.0,290.0,1,0.7864287762500666,0.0
1116,1116,-0.8905850313918675,-0.9,1,286.0,706.0,1.0,228.0,1,0.5721835291355045,0.0
1117,1117,-0.5986495347943226,-0.6,1,298.0,740.0,1.0,172.0,1,1.0889777724413952,0.0
1118,1118,0.8386634974193619,0.8,0,434.0,930.0,0.0,216.0,1,1.1709211984434906,0.0
1119,1119,-0.8684966673372505,-0.9,1,470.0,910.0,1.0,130.0,1,0.5841396258799498,0.0
1120,1120,0.638431037653536,0.6,0,262.0,696.0,0.0,232.0,1,0.5439031450898866,0.0
1121,1121,0.7691236050295289,0.8,0,316.0,941.0,0.0,193.0,1,0.6745954635633206,0.0
1122,1122,-0.7774768458076535,-0.8,1,291.0,910.0,1.0,169.0,1,0.6982450436423329,0.0
1123,1123,-0.3722422869179156,-0.4,1,419.0,678.0,1.0,223.0,1,0.9041058898397949,0.0
1124,1124,0.9615456880121147,1.0,0,299.0,886.0,0.0,175.0,1,0.9989234780792482,0.0
1125,1125,0.8261800367897127,0.8,0,260.0,719.0,0.0,111.0,1,0.9511044505525604,0.0
1126,1126,-0.5407680394535703,-0.5,1,405.0,696.0,1.0,199.0,1,1.197899734592364,0.0
1127,1127,0.5058255539055074,0.5,0,424.0,659.0,0.0,147.0,1,0.8273304077567774,0.0
1128,1128,-0.7294239111535805,-0.7,1,435.0,872.0,1.0,153.0,1,0.8623532511483752,0.0
1129,1129,0.2949891551487791,0.3,0,289.0,628.0,0.0,233.0,1,0.6142766688185005,0.0
1130,1130,-0.004972103185173715,-0.0,1,264.0,532.0,0.0,514.0,0,0.6120020000796913,0.0
1131,1131,0.9861660762870521,1.0,0,257.0,582.0,0.0,231.0,1,0.552084641674431,0.0
1132,1132,-0.02715147982080457,-0.0,1,255.0,883.0,1.0,242.0,1,1.0068557322828442,0.0
1133,1133,0.27511957750618876,0.3,0,453.0,807.0,1.0,250.0,0,0.9310119449616048,0.0
1134,1134,-0.4545380472201648,-0.5,1,496.0,848.0,1.0,236.0,1,0.5963717375375726,0.0
1135,1135,0.5964199438116342,0.6,0,398.0,500.0,0.0,182.0,1,1.1060476741183793,0.0
1136,1136,0.38680510050844474,0.4,0,493.0,675.0,0.0,412.0,1,0.5500545851322902,0.0
1137,1137,-0.45084313721225855,-0.5,1,446.0,698.0,1.0,216.0,1,0.7031750255154685,0.0
1138,1138,0.6575595509343748,0.7,0,250.0,790.0,0.0,220.0,1,0.6635505136862759,0.0
1139,1139,0.5194258900384274,0.5,0,470.0,723.0,0.0,297.0,1,0.6307556806514532,0.0
1140,1140,0.12451098099845104,0.1,0,391.0,638.0,1.0,411.0,0,0.644794862663623,0.0
1141,1141,-0.3170881798250098,-0.3,1,300.0,939.0,1.0,201.0,1,0.9105002410941863,0.0
1142,1142,-0.04303876514903204,-0.0,1,407.0,644.0,1.0,879.0,1,0.5296728166446654,0.0
1143,1143,-0.8608259052248,-0.9,1,279.0,796.0,1.0,215.0,1,1.0199271821155502,0.0
1144,1144,-0.20791205600127638,-0.2,1,440.0,698.0,0.0,462.0,0,1.1055860135151072,0.0
1145,1145,0.7548550452829508,0.8,0,268.0,501.0,0.0,171.0,1,0.6858392417654636,0.0
1146,1146,0.671507391905366,0.7,0,281.0,579.0,0.0,230.0,1,0.7447202830459294,0.0
1147,1147,0.6555231910123931,0.7,0,313.0,764.0,0.0,173.0,1,0.5784122662301643,0.0
1148,1148,-0.3020039341160663,-0.3,1,459.0,990.0,1.0,281.0,1,1.0141123008982533,0.0
1149,1149,-0.3944824752656726,-0.4,1,454.0,952.0,1.0,214.0,1,0.6883240267758775,0.0
1150,1150,-0.4926701687783692,-0.5,1,361.0,506.0,1.0,203.0,1,0.9277598573665897,0.0
1151,1151,0.9621686530690976,1.0,0,397.0,796.0,0.0,167.0,1,0.8219238410330694,0.0
1152,1152,-0.633362564234546,-0.6,1,353.0,708.0,1.0,179.0,1,1.1161109978813513,0.0
1153,1153,0.5312298674379479,0.5,0,371.0,613.0,0.0,166.0,1,1.160769903817528,0.0
1154,1154,0.9144470781883192,0.9,0,266.0,666.0,0.0,198.0,1,0.7800333015777083,0.0
1155,1155,0.07765359714374842,0.1,0,465.0,766.0,0.0,369.0,1,0.5407080389417023,0.0
1156,1156,-0.8707516884057538,-0.9,1,416.0,881.0,1.0,153.0,1,1.2216817330414882,0.0
1157,1157,-0.9364454924390551,-0.9,1,359.0,717.0,1.0,184.0,1,1.102416312573671,0.0
1158,1158,0.5363151282861582,0.5,0,430.0,534.0,0.0,316.0,1,1.050339199460172,0.0
1159,1159,0.7086442258466563,0.7,0,264.0,581.0,0.0,225.0,1,0.5931557409879948,0.0
1160,1160,-0.9987882448218879,-1.0,1,497.0,982.0,1.0,71.0,1,0.9204794799770823,0.0
1161,1161,0.014077818331251546,0.0,0,463.0,614.0,1.0,383.0,0,0.6090992250905778,0.0
1162,1162,0.09937760885918889,0.1,0,498.0,637.0,1.0,225.0,0,1.242985329391515,0.0
1163,1163,0.17001370309703678,0.2,0,403.0,572.0,1.0,155.0,0,1.2169260734115355,0.0
1164,1164,0.11740413371720537,0.1,0,476.0,889.0,0.0,255.0,1,1.2312117922853631,0.0
1165,1165,0.5530615444233762,0.6,0,318.0,694.0,0.0,218.0,1,0.8671581548357616,0.0
1166,1166,-0.5634899248307546,-0.6,1,251.0,793.0,1.0,236.0,1,0.905981896956667,0.0
1167,1167,-0.10463571349782819,-0.1,1,447.0,945.0,1.0,558.0,1,0.7033040455492364,0.0
1168,1168,0.14337537392902,0.1,0,281.0,742.0,0.0,297.0,1,1.0375105428501268,0.0
1169,1169,0.4745913188951816,0.5,0,351.0,869.0,0.0,230.0,1,1.240035435005134,0.0
1170,1170,0.12016398442458032,0.1,0,356.0,887.0,1.0,157.0,0,1.1625362869391704,0.0
1171,1171,0.4226942235978317,0.4,0,451.0,833.0,0.0,246.0,1,0.849241750484111,0.0
1172,1172,-0.36010689218621295,-0.4,1,290.0,848.0,1.0,232.0,1,0.7440303103252152,0.0
1173,1173,-0.3163356548789551,-0.3,1,404.0,653.0,1.0,273.0,1,0.5891391189101949,0.0
1174,1174,-0.7509969213695156,-0.8,1,409.0,593.0,1.0,108.0,1,0.8138641702235311,0.0
1175,1175,-0.5194806468321544,-0.5,1,287.0,748.0,1.0,185.0,1,0.8771359667369876,0.0
1176,1176,0.6805576751263698,0.7,0,386.0,833.0,0.0,221.0,1,1.2277210879140397,0.0
1177,1177,-0.4456633266147454,-0.4,1,496.0,931.0,1.0,153.0,1,1.0942289136582637,0.0
1178,1178,-0.6790163614788784,-0.7,1,462.0,946.0,1.0,202.0,1,0.8522395483812326,0.0
1179,1179,-0.9148933993122279,-0.9,1,367.0,663.0,1.0,140.0,1,1.0292692281617026,0.0
1180,1180,0.28969821329232825,0.3,0,322.0,675.0,0.0,833.0,1,0.5353564131162429,0.0
1181,1181,-0.486411343213198,-0.5,1,319.0,560.0,1.0,361.0,1,0.5296652537069172,0.0
1182,1182,0.6864304530303957,0.7,0,422.0,841.0,0.0,137.0,1,1.0425264378346801,0.0
1183,1183,-0.5630249127952176,-0.6,1,280.0,744.0,1.0,206.0,1,0.815002719004692,0.0
1184,1184,0.9342001354975447,0.9,0,307.0,541.0,0.0,122.0,1,0.6889669363499091,0.0
1185,1185,0.6365412562720476,0.6,0,439.0,893.0,0.0,218.0,1,1.1921146114559231,0.0
1186,1186,-0.7667790108024597,-0.8,1,473.0,979.0,1.0,208.0,1,0.6621826946909904,0.0
1187,1187,0.8235992181693581,0.8,0,283.0,889.0,0.0,208.0,1,0.6367466716943219,0.0
1188,1188,0.790823342841432,0.8,0,422.0,688.0,0.0,120.0,1,1.0568761624447236,0.0
1189,1189,-0.6293315951715275,-0.6,1,275.0,504.0,1.0,271.0,1,1.0514130867061915,0.0
1190,1190,-0.3269836982544023,-0.3,1,466.0,519.0,1.0,275.0,1,1.0981872678156543,0.0
1191,1191,0.007610005236807993,0.0,0,413.0,676.0,1.0,231.0,0,0.9484128589444337,0.0
1192,1192,-0.24929274936112322,-0.2,1,331.0,849.0,1.0,290.0,1,0.8943678635981943,0.0
1193,1193,0.6144747841181271,0.6,0,371.0,987.0,0.0,272.0,1,0.9671746247835779,0.0
1194,1194,-0.7235074736002494,-0.7,1,472.0,653.0,1.0,175.0,1,0.8390733906093943,0.0
1195,1195,-0.4510108486308859,-0.5,1,389.0,860.0,1.0,261.0,1,0.9460583073001516,0.0
1196,1196,-0.5091531488228092,-0.5,1,436.0,769.0,1.0,235.0,1,0.8280769759082243,0.0
1197,1197,-0.27864516268559014,-0.3,1,332.0,763.0,1.0,255.0,1,0.9716144410805462,0.0
1198,1198,-0.3882415726839905,-0.4,1,359.0,579.0,1.0,232.0,1,0.7429918067919915,0.0
1199,1199,0.8415840283997937,0.8,0,276.0,702.0,0.0,172.0,1,0.8017395480305041,0.0
1200,1200,0.7798019498771571,0.8,0,328.0,763.0,0.0,149.0,1,1.0201864450258067,0.0
1201,1201,-0.9782821805217987,-1.0,1,296.0,611.0,1.0,143.0,1,0.6499895427028564,0.0
1202,1202,-0.8464485094717855,-0.8,1,350.0,966.0,1.0,154.0,1,0.780429704982466,0.0
1203,1203,0.5909858163787742,0.6,0,493.0,620.0,0.0,327.0,1,0.7046922469079848,0.0
1204,1204,0.7192859581363749,0.7,0,318.0,777.0,0.0,265.0,1,0.9129213630860458,0.0
1205,1205,0.09401296038687956,0.1,0,423.0,647.0,1.0,230.0,0,0.9038224625376069,0.0
1206,1206,-0.7465569394354534,-0.7,1,371.0,829.0,1.0,130.0,1,0.8848143978749254,0.0
1207,1207,0.7932184872992931,0.8,0,342.0,703.0,0.0,365.0,1,0.5143814574642703,0.0
1208,1208,-0.20162535413031835,-0.2,1,407.0,613.0,1.0,230.0,1,1.204734630953798,0.0
1209,1209,-0.3117616269625767,-0.3,1,310.0,751.0,1.0,169.0,1,1.0820781272681053,0.0
1210,1210,0.9259544265108377,0.9,0,329.0,774.0,0.0,187.0,1,0.8699657128146709,0.0
1211,1211,-0.7228355686881676,-0.7,1,449.0,897.0,1.0,214.0,1,0.6281843134253389,0.0
1212,1212,-0.9198770556608178,-0.9,1,345.0,519.0,1.0,106.0,1,0.9382294756658249,0.0
1213,1213,-0.6743923227433894,-0.7,1,496.0,611.0,1.0,193.0,1,0.5636367436684294,0.0
1214,1214,-0.6591780017913733,-0.7,1,421.0,580.0,1.0,209.0,1,0.6087343640721017,0.0
1215,1215,-0.43953225555150355,-0.4,1,380.0,901.0,1.0,319.0,1,0.5711544848115752,0.0
1216,1216,-0.03354557637342315,-0.0,1,345.0,875.0,0.0,220.0,0,1.0853817618344472,0.0
1217,1217,0.6894872845696713,0.7,0,330.0,669.0,0.0,201.0,1,1.0708244090311592,0.0
1218,1218,-0.7704845193584515,-0.8,1,446.0,884.0,1.0,250.0,1,0.559852916539532,0.0
1219,1219,0.8887590609754779,0.9,0,318.0,889.0,0.0,193.0,1,0.6474658682595014,0.0
1220,1220,-0.8053203423530535,-0.8,1,359.0,592.0,1.0,239.0,1,0.5122706835928741,0.0
1221,1221,0.3834051529680853,0.4,0,315.0,574.0,0.0,311.0,1,0.8609752861890543,0.0
1222,1222,0.3792759362868168,0.4,0,381.0,594.0,0.0,295.0,1,0.5539065430715858,0.0
1223,1223,-0.9908793912372647,-1.0,1,486.0,891.0,1.0,123.0,1,1.0962614983125722,0.0
1224,1224,-0.9722276608428222,-1.0,1,451.0,936.0,1.0,183.0,1,0.7824244242680733,0.0
1225,1225,0.6350348275837197,0.6,0,393.0,930.0,0.0,267.0,1,1.163329507466985,0.0
1226,1226,0.2889167647515434,0.3,0,396.0,774.0,0.0,190.0,1,1.1002544664859348,0.0
1227,1227,0.057906774968907504,0.1,0,491.0,756.0,1.0,613.0,0,1.2077022695577664,0.0
1228,1228,0.37645106495112723,0.4,0,269.0,737.0,0.0,294.0,1,0.8970229053893375,0.0
