,trial,coherence,coherence_bin,correct_side,target_onset,checker_onset,decision,decision_time,correct_decision,gain
0,0,-0.4987136376592296,-0.5,1,415.0,864.0,0.0,721.0,0,0.15105792055265288
1,1,0.2249418611759748,0.2,1,394.0,646.0,1.0,3960.0,1,0.15649769203937314
2,2,0.8044561392186418,0.8,0,272.0,740.0,1.0,138.0,0,0.9733895652796887
3,3,-0.8437567971293762,-0.8,1,397.0,857.0,0.0,276.0,0,0.22800874354606027
4,4,-0.5038057644646243,-0.5,1,278.0,734.0,0.0,228.0,0,0.7748735270104529
5,5,-0.7118328408093619,-0.7,1,306.0,541.0,0.0,333.0,0,0.2748628670958433
6,6,0.9884795684285461,1.0,0,317.0,768.0,1.0,205.0,0,0.8709862093704671
7,7,-0.6337168595484126,-0.6,1,444.0,501.0,0.0,245.0,0,0.3627056712274349
8,8,0.7200777573811026,0.7,0,365.0,674.0,1.0,201.0,0,0.8600625266797608
9,9,-0.9584047590333615,-1.0,1,288.0,823.0,0.0,239.0,0,0.5376385777984638
10,10,-0.3547343112625496,-0.4,1,346.0,977.0,0.0,807.0,0,0.11300782471825344
11,11,0.4990682524538299,0.5,1,290.0,896.0,1.0,184.0,1,0.5774089243289828
12,12,0.8960437348009183,0.9,0,370.0,900.0,1.0,170.0,0,0.5755255282447932
13,13,0.9955250785689351,1.0,0,269.0,947.0,1.0,74.0,0,0.5967579983822574
14,14,0.47369273551918356,0.5,1,475.0,984.0,1.0,351.0,1,0.5178012342654914
15,15,-0.5931315543444706,-0.6,1,469.0,829.0,0.0,342.0,0,0.1860159094073086
16,16,0.48004684448213153,0.5,1,330.0,934.0,1.0,266.0,1,0.07974238274436363
17,17,-0.8829469889191779,-0.9,1,384.0,585.0,0.0,261.0,0,0.04155733558136521
18,18,0.7713766259941468,0.8,0,415.0,665.0,1.0,410.0,0,0.016690096988200676
19,19,0.03655955570035907,0.0,1,306.0,633.0,0.0,3971.0,0,0.4937600098566086
20,20,-0.7796281060565935,-0.8,1,463.0,653.0,0.0,214.0,0,0.339615634185535
21,21,-0.9290170389435075,-0.9,1,415.0,692.0,0.0,223.0,0,0.3208660560022666
22,22,-0.8773629195728951,-0.9,1,275.0,582.0,0.0,203.0,0,0.4173039753364487
23,23,0.10066193011964875,0.1,1,473.0,856.0,0.0,3671.0,0,0.163983914113923
24,24,0.4101526896698926,0.4,1,365.0,887.0,1.0,1418.0,1,0.036641590317689876
25,25,0.822127142453543,0.8,0,449.0,701.0,1.0,240.0,0,0.13504177702628717
26,26,0.6552434105490943,0.7,0,429.0,803.0,1.0,158.0,0,0.8212098545861849
27,27,-0.19437250238443893,-0.2,1,252.0,570.0,0.0,998.0,0,0.636047243260017
28,28,0.2242940266756046,0.2,1,343.0,639.0,1.0,218.0,1,0.9664448809748256
29,29,0.357877543673385,0.4,1,261.0,880.0,1.0,349.0,1,0.9170381844224172
30,30,-0.3087807523272996,-0.3,1,387.0,616.0,0.0,727.0,0,0.3049706239481228
31,31,-0.11069439685640892,-0.1,1,276.0,531.0,0.0,643.0,0,0.15915017090205008
32,32,-0.36262126283113005,-0.4,1,304.0,568.0,0.0,648.0,0,0.34960541116728705
33,33,-0.6806227005306855,-0.7,1,364.0,615.0,0.0,381.0,0,0.10386426739999677
34,34,-0.8038365418822253,-0.8,1,392.0,792.0,0.0,166.0,0,0.5260378628806054
35,35,0.13542945423245256,0.1,1,307.0,971.0,1.0,3722.0,1,0.2717071084788083
36,36,-0.5786951417219863,-0.6,1,442.0,866.0,0.0,382.0,0,0.10062946731595446
37,37,-0.7160360982817555,-0.7,1,302.0,638.0,0.0,220.0,0,0.5129320733342144
38,38,0.7816890068450295,0.8,0,304.0,873.0,1.0,333.0,0,0.2558178368630023
39,39,-0.33339107458664463,-0.3,1,267.0,508.0,0.0,295.0,0,0.8009920327310344
40,40,0.8788838246307926,0.9,0,348.0,613.0,1.0,349.0,0,0.6270168437849689
41,41,0.18120902271175332,0.2,1,435.0,538.0,1.0,527.0,1,0.13337058972301252
42,42,0.7111397700080646,0.7,0,343.0,857.0,1.0,400.0,0,0.037770839366857545
43,43,0.3767004924878936,0.4,1,496.0,731.0,1.0,713.0,1,0.16615832564202637
44,44,-0.9067373277801793,-0.9,1,435.0,754.0,0.0,351.0,0,0.03389838795213518
45,45,-0.4776687396409909,-0.5,1,304.0,810.0,0.0,206.0,0,0.8494818091439886
46,46,0.7664028196035764,0.8,0,269.0,531.0,1.0,230.0,0,0.0632183231637774
47,47,-0.06774806316431459,-0.1,1,487.0,573.0,0.0,690.0,0,0.9961582419317722
48,48,-0.9927179760515004,-1.0,1,384.0,665.0,0.0,111.0,0,0.8294274040464947
49,49,-0.3336593548222795,-0.3,1,252.0,644.0,0.0,284.0,0,0.6768377257471816
50,50,0.2457572956972902,0.2,1,320.0,500.0,1.0,560.0,1,0.8263799578130148
51,51,0.3694639703731639,0.4,1,297.0,685.0,1.0,258.0,1,0.6289657600264568
52,52,0.2592185419527129,0.3,1,352.0,897.0,1.0,771.0,1,0.853325260417141
53,53,0.34772085398084385,0.3,1,318.0,920.0,1.0,602.0,1,0.5757506606877248
54,54,-0.16419846959080364,-0.2,1,422.0,969.0,0.0,3609.0,0,0.42394182693040583
55,55,0.2958697575226943,0.3,1,347.0,724.0,1.0,579.0,1,0.5508241921085019
56,56,-0.7746645183493617,-0.8,1,359.0,964.0,0.0,227.0,0,0.49353380197495544
57,57,-0.7960265279329972,-0.8,1,492.0,637.0,0.0,191.0,0,0.5671057226984666
58,58,-0.32992127296824414,-0.3,1,310.0,758.0,0.0,902.0,0,0.25817186128267955
59,59,0.13205340306647906,0.1,1,348.0,506.0,1.0,1486.0,1,0.5003461933359218
60,60,-0.6208624376506355,-0.6,1,437.0,768.0,0.0,465.0,0,0.09105908548092456
61,61,-0.6069664763650764,-0.6,1,306.0,859.0,0.0,465.0,0,0.33325927129581756
62,62,0.4970452431682606,0.5,1,309.0,802.0,1.0,219.0,1,0.4841375309826572
63,63,-0.3955116801846299,-0.4,1,274.0,861.0,0.0,485.0,0,0.6586294978654961
64,64,-0.8657262065183806,-0.9,1,272.0,596.0,0.0,372.0,0,0.7552059474560388
65,65,0.6256803073969954,0.6,0,393.0,800.0,1.0,237.0,0,0.965812489390129
66,66,-0.49384057639499224,-0.5,1,425.0,682.0,0.0,243.0,0,0.7855282718762224
67,67,0.8731876188490284,0.9,0,360.0,944.0,1.0,246.0,0,0.6579423696212562
68,68,0.13786544459220207,0.1,1,285.0,877.0,0.0,318.0,0,0.9481194517911327
69,69,0.5725732091157179,0.6,0,437.0,562.0,1.0,301.0,0,0.21475011491629892
70,70,0.34817985558982323,0.3,1,442.0,515.0,1.0,183.0,1,0.7857572950292447
71,71,-0.5756795643285024,-0.6,1,450.0,555.0,0.0,235.0,0,0.10816253771006912
72,72,-0.8719944455110591,-0.9,1,350.0,541.0,0.0,239.0,0,0.7229515399302209
73,73,0.5457344433177242,0.5,0,371.0,840.0,1.0,219.0,0,0.6101327713418248
74,74,0.012776744151511199,0.0,1,432.0,942.0,0.0,2726.0,0,0.598928632124465
75,75,-0.6364680862279537,-0.6,1,278.0,717.0,0.0,585.0,0,0.19455390627975278
76,76,-0.2349626715536759,-0.2,1,451.0,819.0,0.0,220.0,0,0.8940490284771762
77,77,-0.8438965346291469,-0.8,1,381.0,863.0,0.0,356.0,0,0.43898092234993125
78,78,-0.927823999156431,-0.9,1,317.0,605.0,0.0,158.0,0,0.6855176592359022
79,79,0.7848984753214308,0.8,0,382.0,600.0,1.0,218.0,0,0.5589037239589096
80,80,0.10692751769291742,0.1,1,339.0,970.0,1.0,781.0,1,0.7930326455632473
81,81,0.5832776657493992,0.6,0,413.0,955.0,1.0,1442.0,0,0.11049973793152368
82,82,-0.8230650132047663,-0.8,1,305.0,671.0,0.0,224.0,0,0.7745107044084906
83,83,-0.8861011037369524,-0.9,1,299.0,766.0,0.0,205.0,0,0.6886541012344725
84,84,-0.1820859950039324,-0.2,1,293.0,987.0,0.0,670.0,0,0.47228688736057955
85,85,-0.7669105156284826,-0.8,1,409.0,803.0,0.0,148.0,0,0.48695462948172685
86,86,0.7910488070210899,0.8,0,392.0,637.0,1.0,241.0,0,0.5460249889412141
87,87,-0.2573545787835685,-0.3,1,302.0,796.0,0.0,862.0,0,0.6226487078780907
88,88,-0.7607258179242669,-0.8,1,353.0,511.0,0.0,136.0,0,0.13182474189606852
89,89,0.6691262538719995,0.7,0,344.0,889.0,1.0,117.0,0,0.19846118695514037
90,90,0.180652689149849,0.2,1,380.0,978.0,1.0,602.0,1,0.35368477165831
91,91,-0.38681689278570497,-0.4,1,312.0,991.0,0.0,607.0,0,0.13865398675815488
92,92,0.4105914511988371,0.4,1,354.0,922.0,1.0,404.0,1,0.5130855289113162
93,93,0.1419519451719149,0.1,1,370.0,807.0,1.0,883.0,1,0.6565254113609239
94,94,0.3612316634019619,0.4,1,278.0,576.0,1.0,1666.0,1,0.22035238172406735
95,95,-0.3975870752159665,-0.4,1,408.0,860.0,0.0,372.0,0,0.9698237292669223
96,96,-0.3382053013576931,-0.3,1,489.0,801.0,0.0,1080.0,0,0.2739211201373234
97,97,0.4694221625973718,0.5,1,304.0,509.0,1.0,157.0,1,0.9171188628486574
98,98,-0.044019922761534325,-0.0,1,430.0,949.0,0.0,3621.0,0,0.4346533762139737
99,99,0.17276017420263812,0.2,1,250.0,993.0,0.0,3757.0,0,0.4118737352203973
100,100,0.7429288134332235,0.7,0,435.0,744.0,1.0,611.0,0,0.0393529523853553
101,101,-0.18079315774632398,-0.2,1,391.0,764.0,0.0,3845.0,0,0.14073284930756236
102,102,-0.6171011975291623,-0.6,1,314.0,949.0,0.0,207.0,0,0.9741311871813667
103,103,0.08235575158224462,0.1,1,322.0,813.0,1.0,1365.0,1,0.4559012999433102
104,104,-0.24117340109826202,-0.2,1,306.0,888.0,0.0,1026.0,0,0.16898368938901442
105,105,-0.12283003808501536,-0.1,1,334.0,758.0,0.0,1478.0,0,0.6694159779338021
106,106,0.3277079646134866,0.3,1,301.0,635.0,1.0,424.0,1,0.42249274051615304
107,107,-0.9553332907347165,-1.0,1,465.0,815.0,0.0,140.0,0,0.9433150986712495
108,108,-0.5789437611187152,-0.6,1,352.0,926.0,0.0,292.0,0,0.25925268443809246
109,109,-0.33955611153537446,-0.3,1,405.0,862.0,0.0,1033.0,0,0.3408668454804713
110,110,0.297869662801139,0.3,1,362.0,598.0,1.0,710.0,1,0.3081514166017455
111,111,-0.8940183140561915,-0.9,1,416.0,868.0,0.0,56.0,0,0.5988607874316383
112,112,0.4098923361109781,0.4,1,280.0,522.0,1.0,918.0,1,0.2587238571541025
113,113,0.011195460695381021,0.0,1,325.0,853.0,0.0,3822.0,0,0.03498102912086387
114,114,-0.502967828730434,-0.5,1,379.0,612.0,0.0,219.0,0,0.982217533601521
115,115,-0.8081987871905063,-0.8,1,466.0,574.0,0.0,190.0,0,0.4981446073181397
116,116,-0.9183839231702873,-0.9,1,379.0,689.0,0.0,362.0,0,0.019148652375631237
117,117,-0.3361158306825842,-0.3,1,453.0,552.0,0.0,1205.0,0,0.05105695616107553
118,118,-0.05907027631628137,-0.1,1,279.0,518.0,0.0,723.0,0,0.6455933195512561
119,119,0.0963534286208485,0.1,1,329.0,918.0,1.0,363.0,1,0.8376046545880026
120,120,-0.07988764245788227,-0.1,1,432.0,527.0,1.0,4041.0,1,0.20111464734664308
121,121,-0.0730787037924816,-0.1,1,301.0,776.0,0.0,963.0,0,0.39411784365895675
122,122,-0.7260167604301848,-0.7,1,350.0,575.0,0.0,155.0,0,0.7078189130284552
123,123,-0.7080295338827647,-0.7,1,465.0,814.0,0.0,391.0,0,0.14976691946128706
124,124,-0.37375487293019094,-0.4,1,361.0,848.0,0.0,261.0,0,0.9018182042011416
125,125,-0.14624165828592584,-0.1,1,366.0,873.0,0.0,321.0,0,0.972906743743376
126,126,0.6189736060581201,0.6,0,495.0,966.0,1.0,119.0,0,0.4871437465641518
127,127,-0.7109600973682846,-0.7,1,267.0,545.0,0.0,148.0,0,0.775220595348776
128,128,0.32941408039882525,0.3,1,408.0,577.0,1.0,345.0,1,0.7143455258920888
129,129,0.07942374122576568,0.1,1,261.0,851.0,1.0,898.0,1,0.8359034035390932
130,130,-0.5417925039597828,-0.5,1,446.0,651.0,0.0,243.0,0,0.6438499850813784
131,131,-0.47762200738262695,-0.5,1,444.0,831.0,0.0,305.0,0,0.9122534322810658
132,132,-0.3582892716721249,-0.4,1,282.0,533.0,0.0,585.0,0,0.3024929394231918
133,133,0.35304115185897067,0.4,1,372.0,701.0,1.0,417.0,1,0.4083141372417791
134,134,-0.9867051943249652,-1.0,1,482.0,903.0,0.0,55.0,0,0.29380861980984496
135,135,0.1855015672772118,0.2,1,320.0,915.0,1.0,2385.0,1,0.3620336956740844
136,136,0.45786616981083994,0.5,1,292.0,870.0,1.0,418.0,1,0.4231423085093112
137,137,-0.9870132417762325,-1.0,1,318.0,844.0,0.0,158.0,0,0.30265205546126095
138,138,0.6739616257151149,0.7,0,419.0,840.0,1.0,181.0,0,0.7092248956121986
139,139,-0.16451647019178717,-0.2,1,294.0,541.0,0.0,2625.0,0,0.3447035037583638
140,140,0.2690562192027268,0.3,1,418.0,954.0,1.0,308.0,1,0.540398865066174
141,141,-0.9000979477359967,-0.9,1,286.0,948.0,0.0,316.0,0,0.13428083842223293
142,142,-0.35707771076754224,-0.4,1,393.0,924.0,0.0,363.0,0,0.9638658455806111
143,143,-0.3524039197844826,-0.4,1,258.0,802.0,0.0,480.0,0,0.7323396888944086
144,144,-0.9243942101819342,-0.9,1,492.0,602.0,0.0,216.0,0,0.9478962833497645
145,145,0.9726958347009869,1.0,0,254.0,916.0,1.0,140.0,0,0.6147219490663699
146,146,0.38054859474243075,0.4,1,274.0,884.0,1.0,382.0,1,0.5087126127176993
147,147,0.7068905105620054,0.7,0,411.0,577.0,1.0,232.0,0,0.6654035501452296
148,148,-0.4016600000637147,-0.4,1,409.0,953.0,0.0,578.0,0,0.4838499782177831
149,149,-0.534092566870064,-0.5,1,435.0,721.0,0.0,234.0,0,0.9561317811861066
150,150,0.9163200830862881,0.9,0,478.0,530.0,1.0,72.0,0,0.9544383851757047
151,151,0.3122070562376824,0.3,1,366.0,619.0,1.0,425.0,1,0.5746255170294108
152,152,-0.37634260947305465,-0.4,1,288.0,909.0,0.0,473.0,0,0.9623952455210012
153,153,0.7599840428182001,0.8,0,445.0,502.0,1.0,233.0,0,0.9617635400042677
154,154,0.3763938793411743,0.4,1,492.0,827.0,1.0,531.0,1,0.9570276378989221
155,155,0.4208260539828157,0.4,1,406.0,663.0,1.0,201.0,1,0.7730018537120125
156,156,0.14178262954181076,0.1,1,258.0,702.0,1.0,1310.0,1,0.4179594941403465
157,157,0.7416581931537438,0.7,0,488.0,666.0,1.0,386.0,0,0.02153253248710163
158,158,-0.9381896664444378,-0.9,1,487.0,502.0,0.0,211.0,0,0.1909943406789354
159,159,0.5235707334636635,0.5,0,434.0,937.0,1.0,369.0,0,0.678748314205873
160,160,-0.5867901640411124,-0.6,1,443.0,555.0,0.0,192.0,0,0.4918959302802377
161,161,-0.7845981560491142,-0.8,1,312.0,839.0,0.0,169.0,0,0.2627415692714624
162,162,-0.04626378489948002,-0.0,1,370.0,827.0,1.0,373.0,1,0.8706373244684278
163,163,-0.408043676984019,-0.4,1,344.0,898.0,0.0,298.0,0,0.5224593636277876
164,164,0.2678387775340134,0.3,1,467.0,616.0,1.0,3917.0,1,0.07505098980041036
165,165,-0.5904858543891873,-0.6,1,316.0,965.0,0.0,239.0,0,0.4264303960438741
166,166,0.05965102939720501,0.1,1,253.0,556.0,1.0,1891.0,1,0.8220571084707116
167,167,0.9587570936373431,1.0,0,468.0,897.0,1.0,395.0,0,0.2976403279641229
168,168,-0.6228149723889924,-0.6,1,475.0,800.0,0.0,175.0,0,0.9934144010014421
169,169,-0.07658393900523519,-0.1,1,495.0,586.0,0.0,829.0,0,0.7791388907850136
170,170,0.5693536956695824,0.6,0,447.0,570.0,1.0,343.0,0,0.3569081936127665
171,171,-0.08875383495265887,-0.1,1,448.0,952.0,0.0,1590.0,0,0.27214678983306884
172,172,0.45066269931681924,0.5,1,366.0,685.0,1.0,209.0,1,0.7211916616253385
173,173,0.4364235077973153,0.4,1,354.0,657.0,1.0,1639.0,1,0.08069658173534999
174,174,0.4668697914945672,0.5,1,444.0,761.0,1.0,485.0,1,0.213729666058183
175,175,-0.573980032903882,-0.6,1,470.0,605.0,0.0,285.0,0,0.38753137617749156
176,176,-0.1422087486387309,-0.1,1,448.0,817.0,0.0,3735.0,0,0.03403744210761572
177,177,-0.5805230335865523,-0.6,1,478.0,656.0,0.0,326.0,0,0.41419361641855446
178,178,0.23048229096519557,0.2,1,435.0,511.0,1.0,774.0,1,0.5652152725141693
179,179,0.425050649089304,0.4,1,496.0,682.0,1.0,422.0,1,0.5069366077527198
180,180,0.16796048255175156,0.2,1,391.0,604.0,1.0,4005.0,1,0.11347160979760318
181,181,-0.9201501346546259,-0.9,1,340.0,610.0,0.0,280.0,0,0.16611067310806604
182,182,0.6752155587821822,0.7,0,340.0,691.0,1.0,269.0,0,0.9008679280111936
183,183,-0.42557334261992485,-0.4,1,457.0,626.0,0.0,347.0,0,0.5032601892881434
184,184,0.14132916553605623,0.1,1,285.0,990.0,1.0,1215.0,1,0.5430172941387392
185,185,0.5092896114090635,0.5,0,480.0,541.0,1.0,219.0,0,0.9616266242612675
186,186,-0.07966892744641618,-0.1,1,307.0,596.0,0.0,4097.0,0,0.10664494393208634
187,187,-0.24535665802012163,-0.2,1,256.0,821.0,0.0,283.0,0,0.7408857880387508
188,188,-0.7957756004656154,-0.8,1,283.0,968.0,0.0,249.0,0,0.1257747400311494
189,189,-0.20627959190356226,-0.2,1,279.0,743.0,0.0,758.0,0,0.7563153085447928
190,190,-0.23562999938034435,-0.2,1,359.0,950.0,0.0,621.0,0,0.5488746737662027
191,191,-0.07497157689712619,-0.1,1,302.0,897.0,0.0,3801.0,0,0.02610049865543751
192,192,0.07363224401186974,0.1,1,286.0,530.0,1.0,604.0,1,0.8283636016458521
193,193,-0.06393089042465161,-0.1,1,436.0,855.0,0.0,3709.0,0,0.44185786292251783
194,194,0.45574815801269075,0.5,1,334.0,741.0,1.0,1365.0,1,0.0024293929960995664
195,195,0.19912699145968293,0.2,1,285.0,929.0,1.0,2096.0,1,0.228023464147303
196,196,0.029163562977372104,0.0,1,394.0,529.0,0.0,627.0,0,0.5754631363152128
197,197,-0.14977328808646884,-0.1,1,485.0,853.0,0.0,252.0,0,0.9330615123385614
198,198,0.753002638831316,0.8,0,456.0,886.0,1.0,368.0,0,0.08278751445251076
199,199,-0.9934072478633142,-1.0,1,449.0,868.0,0.0,203.0,0,0.02142880691751803
200,200,0.16174644771334923,0.2,1,459.0,751.0,1.0,3500.0,1,0.06964652386195469
201,201,-0.11554278068658608,-0.1,1,494.0,699.0,0.0,3807.0,0,0.05347039586346769
202,202,0.9876134334781681,1.0,0,472.0,586.0,1.0,232.0,0,0.8094482131604418
203,203,-0.08638072902491056,-0.1,1,382.0,949.0,0.0,1439.0,0,0.4639678924258538
204,204,-0.20242151481469683,-0.2,1,414.0,726.0,0.0,280.0,0,0.9020651552771047
205,205,0.29119962327449356,0.3,1,401.0,656.0,1.0,533.0,1,0.5981691313035682
206,206,-0.30599813545775345,-0.3,1,453.0,915.0,0.0,402.0,0,0.7603033213512637
207,207,-0.5054289726526644,-0.5,1,403.0,645.0,0.0,222.0,0,0.7930681945871597
208,208,-0.4283436494425499,-0.4,1,480.0,920.0,0.0,670.0,0,0.5835108590391047
209,209,-0.9338180685863378,-0.9,1,267.0,624.0,0.0,69.0,0,0.6688177082396484
210,210,-0.6320954321325352,-0.6,1,447.0,691.0,0.0,202.0,0,0.7978944789394896
211,211,-0.09488053973090071,-0.1,1,350.0,812.0,0.0,758.0,0,0.7239533554559748
212,212,0.6805910780395621,0.7,0,308.0,520.0,1.0,232.0,0,0.8456853482916303
213,213,-0.7728961847839495,-0.8,1,480.0,864.0,0.0,396.0,0,0.2692502710989012
214,214,0.517857510413086,0.5,0,479.0,670.0,1.0,251.0,0,0.9396994560153046
215,215,-0.7271308785292732,-0.7,1,481.0,899.0,0.0,210.0,0,0.24921556900590103
216,216,-0.055811350018756256,-0.1,1,346.0,649.0,0.0,4005.0,0,0.264017495701829
217,217,-0.05321047308678106,-0.1,1,454.0,552.0,0.0,1344.0,0,0.8658175032251373
218,218,-0.42851676084850787,-0.4,1,416.0,552.0,0.0,362.0,0,0.8639779407578031
219,219,0.012399819228678943,0.0,1,444.0,826.0,0.0,3730.0,0,0.578392821993186
220,220,-0.047518417757950404,-0.0,1,271.0,579.0,0.0,660.0,0,0.7444915393403589
221,221,0.05681236527997169,0.1,1,391.0,934.0,1.0,1925.0,1,0.4660408506654594
222,222,0.5632188716714635,0.6,0,386.0,898.0,1.0,376.0,0,0.2967186862494241
223,223,0.5735295846900581,0.6,0,446.0,581.0,1.0,543.0,0,0.34366681346778205
224,224,-0.1760010788007853,-0.2,1,367.0,661.0,0.0,512.0,0,0.6380728075301586
225,225,0.5155266441434132,0.5,0,378.0,729.0,1.0,183.0,0,0.5148570789730834
226,226,0.6062424123556178,0.6,0,481.0,990.0,1.0,399.0,0,0.5258016603130761
227,227,-0.04843578174780494,-0.0,1,429.0,728.0,0.0,3843.0,0,0.4464988363638043
228,228,-0.3704786194218508,-0.4,1,390.0,664.0,0.0,736.0,0,0.0994950641851331
229,229,0.24202534647867258,0.2,1,375.0,872.0,1.0,3753.0,1,0.12580253973235145
230,230,0.052693656287699175,0.1,1,407.0,813.0,1.0,550.0,1,0.8300475294897831
231,231,0.2253634706513581,0.2,1,311.0,790.0,1.0,1099.0,1,0.5672923803990937
232,232,-0.8217482171307442,-0.8,1,378.0,757.0,0.0,185.0,0,0.2916860607988887
233,233,-0.690212408192646,-0.7,1,390.0,625.0,0.0,195.0,0,0.8844431364011217
234,234,-0.094082238465649,-0.1,1,266.0,542.0,0.0,4192.0,0,0.1625510328084625
235,235,-0.7935982174490339,-0.8,1,282.0,822.0,0.0,276.0,0,0.32146197824137557
236,236,-0.011221082829566686,-0.0,1,451.0,921.0,1.0,3628.0,1,0.2220562800523871
237,237,-0.2199829471013306,-0.2,1,426.0,970.0,0.0,494.0,0,0.7220489106407257
238,238,0.20288962491840312,0.2,1,319.0,750.0,1.0,531.0,1,0.976284404076419
239,239,0.6926330382736186,0.7,0,256.0,903.0,1.0,331.0,0,0.87923024082176
240,240,0.12637313108747295,0.1,1,262.0,665.0,0.0,4073.0,0,0.2862597765739593
241,241,-0.556902379825678,-0.6,1,306.0,621.0,0.0,283.0,0,0.4929484446789202
242,242,-0.5780433107466834,-0.6,1,340.0,834.0,0.0,176.0,0,0.3364182783937004
243,243,0.8626027622568873,0.9,0,256.0,917.0,1.0,257.0,0,0.2764619284811387
244,244,-0.03375089900301509,-0.0,1,392.0,723.0,0.0,3885.0,0,0.0033459353729260455
245,245,-0.384299940258924,-0.4,1,305.0,536.0,0.0,349.0,0,0.7167932054644087
246,246,0.7989537154235471,0.8,0,386.0,962.0,1.0,212.0,0,0.07542010106864117
247,247,-0.4099007530841494,-0.4,1,406.0,616.0,0.0,328.0,0,0.42620623368082333
248,248,0.5102930584950793,0.5,0,410.0,827.0,1.0,303.0,0,0.28652454555223217
249,249,0.14706052790646673,0.1,1,351.0,687.0,1.0,1962.0,1,0.38795074561588117
250,250,0.12029358581062444,0.1,1,349.0,611.0,1.0,520.0,1,0.6611144394303756
251,251,0.03380350257043596,0.0,1,356.0,964.0,1.0,3680.0,1,0.22604780375456357
252,252,0.2868244871208854,0.3,1,276.0,561.0,1.0,1033.0,1,0.421722836932367
253,253,-0.16225240589544754,-0.2,1,305.0,584.0,0.0,401.0,0,0.6162730489148172
254,254,0.7999187913059769,0.8,0,392.0,791.0,1.0,427.0,0,0.03302954464984453
255,255,-0.3965333639397637,-0.4,1,402.0,765.0,0.0,1253.0,0,0.007406111908933033
256,256,-0.7112302214945341,-0.7,1,387.0,854.0,0.0,299.0,0,0.15527031434969185
257,257,0.060556570646791874,0.1,1,251.0,762.0,1.0,3987.0,1,0.09318062661943727
258,258,-0.3395593253369631,-0.3,1,305.0,779.0,0.0,276.0,0,0.9806145915757223
259,259,0.06816291489595017,0.1,1,397.0,722.0,1.0,481.0,1,0.4893979493882461
260,260,0.3915097954380533,0.4,1,251.0,750.0,1.0,369.0,1,0.5280231759167147
261,261,-0.5827691035114941,-0.6,1,435.0,765.0,0.0,220.0,0,0.5943414510578745
262,262,-0.6393334192332283,-0.6,1,337.0,711.0,0.0,242.0,0,0.3278396886970909
263,263,0.6189738017863688,0.6,0,265.0,720.0,1.0,335.0,0,0.7448250196256359
264,264,0.46033079944397937,0.5,1,397.0,800.0,1.0,263.0,1,0.5801542538321567
265,265,-0.5934103001938662,-0.6,1,331.0,561.0,0.0,248.0,0,0.6039864864208535
266,266,-0.1265052537939919,-0.1,1,491.0,643.0,0.0,3866.0,0,0.25894222782187204
267,267,-0.5721910330912325,-0.6,1,324.0,790.0,0.0,266.0,0,0.16689566887474028
268,268,0.9952613341056389,1.0,0,387.0,587.0,1.0,276.0,0,0.2156509245832714
269,269,0.38281535739750705,0.4,1,270.0,977.0,1.0,863.0,1,0.15104153131236608
270,270,-0.7734631320162875,-0.8,1,301.0,843.0,0.0,216.0,0,0.3348409710109729
271,271,-0.993236943062064,-1.0,1,499.0,687.0,0.0,234.0,0,0.5784270249828415
272,272,-0.11188670752549856,-0.1,1,444.0,815.0,0.0,631.0,0,0.615354052793337
273,273,-0.082060885075256,-0.1,1,489.0,935.0,1.0,456.0,1,0.948037813980154
274,274,0.9068338771747528,0.9,0,324.0,509.0,1.0,117.0,0,0.8755563054294576
275,275,-0.7250877760884318,-0.7,1,406.0,582.0,0.0,212.0,0,0.3108058340971871
276,276,-0.018851174337442655,-0.0,1,443.0,739.0,1.0,3818.0,1,0.3159716692257213
277,277,-0.07715380372732694,-0.1,1,439.0,834.0,0.0,3727.0,0,0.5943971324254025
278,278,0.8849202346691303,0.9,0,365.0,551.0,1.0,194.0,0,0.298324949663334
279,279,0.46743625679153666,0.5,1,437.0,503.0,1.0,670.0,1,0.601385779840702
280,280,0.6888002070186561,0.7,0,493.0,894.0,1.0,253.0,0,0.8172779400967076
281,281,-0.29574381756291834,-0.3,1,341.0,896.0,0.0,303.0,0,0.9882444663624137
282,282,-0.7679571154342102,-0.8,1,374.0,699.0,0.0,247.0,0,0.6185746145013208
283,283,-0.7878477686446059,-0.8,1,425.0,776.0,0.0,379.0,0,0.545387853625749
284,284,0.18519136988642848,0.2,1,360.0,992.0,1.0,3648.0,1,0.08915066262512206
285,285,0.5324858695257335,0.5,0,437.0,947.0,1.0,316.0,0,0.37748843599722026
286,286,-0.08446235898267807,-0.1,1,466.0,626.0,0.0,368.0,0,0.5850912739200788
287,287,-0.06813676192044116,-0.1,1,317.0,767.0,0.0,2596.0,0,0.5377819236083968
288,288,-0.5130684065185775,-0.5,1,456.0,753.0,0.0,201.0,0,0.2412770203177792
289,289,-0.3422630449443662,-0.3,1,262.0,941.0,0.0,767.0,0,0.5604425740874585
290,290,0.9943195932214977,1.0,0,466.0,868.0,1.0,216.0,0,0.28395940465629077
291,291,0.3834251696234725,0.4,1,494.0,870.0,1.0,356.0,1,0.3760070104483072
292,292,0.8995540495892347,0.9,0,325.0,883.0,1.0,212.0,0,0.7474619071577582
293,293,0.027572102376931085,0.0,1,487.0,576.0,1.0,3937.0,1,0.2714757411551154
294,294,-0.22951649017750597,-0.2,1,496.0,923.0,0.0,1481.0,0,0.18992778332087756
295,295,0.7611707922429243,0.8,0,458.0,925.0,1.0,377.0,0,0.07990247154563623
296,296,-0.013033910315975561,-0.0,1,259.0,700.0,1.0,2171.0,1,0.8151647005323064
297,297,-0.10182410835761102,-0.1,1,422.0,873.0,0.0,505.0,0,0.708078594141479
298,298,0.9955438355199056,1.0,0,454.0,601.0,1.0,315.0,0,0.024060228114978988
299,299,-0.19915122506921934,-0.2,1,316.0,945.0,0.0,1579.0,0,0.6060224187451567
300,300,-0.7483375726982575,-0.7,1,459.0,818.0,0.0,113.0,0,0.7107779136400654
301,301,0.10114387321902796,0.1,1,344.0,610.0,1.0,1796.0,1,0.7047152471647211
302,302,0.013648615024046684,0.0,1,269.0,558.0,1.0,4173.0,1,0.31253592102906136
303,303,0.6288266388459998,0.6,0,390.0,836.0,1.0,194.0,0,0.7265097844543007
304,304,0.6345558997011254,0.6,0,313.0,686.0,1.0,381.0,0,0.6132417556757235
305,305,0.209071769724394,0.2,1,436.0,993.0,1.0,3181.0,1,0.19395998234056966
306,306,0.8602079577327166,0.9,0,264.0,664.0,1.0,232.0,0,0.4738252880273055
307,307,0.2414909028598229,0.2,1,404.0,881.0,1.0,255.0,1,0.8349206783196486
308,308,0.10346476129130533,0.1,1,428.0,857.0,1.0,2265.0,1,0.3972847207796084
309,309,0.24588791564951684,0.2,1,428.0,780.0,1.0,402.0,1,0.31359111099061754
310,310,0.6692889442092123,0.7,0,410.0,992.0,1.0,288.0,0,0.6271438646376042
311,311,0.5933213970848321,0.6,0,284.0,889.0,1.0,307.0,0,0.2722226974134314
312,312,-0.9789788715807941,-1.0,1,320.0,898.0,0.0,112.0,0,0.9638573555776568
313,313,-0.290004242659599,-0.3,1,315.0,935.0,0.0,2000.0,0,0.1397784697163218
314,314,-0.014649722728042658,-0.0,1,455.0,738.0,0.0,2167.0,0,0.760238968935683
315,315,-0.6689931113628387,-0.7,1,341.0,895.0,0.0,404.0,0,0.199755576143682
316,316,0.7093748692105464,0.7,0,303.0,704.0,1.0,173.0,0,0.9619422252574948
317,317,0.28957731180409874,0.3,1,391.0,501.0,1.0,308.0,1,0.48718635672700106
318,318,0.6587445901448394,0.7,0,323.0,709.0,1.0,268.0,0,0.852476700661187
319,319,-0.7497530420904817,-0.7,1,338.0,882.0,0.0,150.0,0,0.17866011583000363
320,320,0.423404174690434,0.4,1,378.0,882.0,1.0,300.0,1,0.3481205761162959
321,321,0.9720104607227675,1.0,0,465.0,782.0,1.0,153.0,0,0.3801616736798624
322,322,-0.024754526418043987,-0.0,1,350.0,504.0,0.0,1716.0,0,0.7288460472534248
323,323,0.461179811956383,0.5,1,344.0,587.0,1.0,359.0,1,0.1521361481539646
324,324,-0.39577441221300713,-0.4,1,342.0,628.0,0.0,330.0,0,0.5791161182897762
325,325,-0.8462331543331687,-0.8,1,386.0,838.0,0.0,156.0,0,0.636946068670684
326,326,0.571840455204977,0.6,0,435.0,736.0,1.0,189.0,0,0.8416221182900432
327,327,-0.056557424237356324,-0.1,1,455.0,530.0,0.0,1075.0,0,0.8551508787040588
328,328,0.23476268007789036,0.2,1,487.0,572.0,1.0,361.0,1,0.4289126329297972
329,329,-0.33697933324370166,-0.3,1,414.0,607.0,0.0,549.0,0,0.3630454978414217
330,330,0.12713438943863742,0.1,1,484.0,667.0,0.0,3849.0,0,0.08074883904387342
331,331,-0.750557731707975,-0.8,1,267.0,592.0,0.0,191.0,0,0.05416821860323173
332,332,0.15276489934710136,0.2,1,361.0,624.0,1.0,4015.0,1,0.14494078454961745
333,333,0.4614675073008767,0.5,1,268.0,704.0,1.0,448.0,1,0.21522975440562275
334,334,0.549203479686295,0.5,0,468.0,643.0,1.0,409.0,0,0.25071329123065034
335,335,0.9779640785513437,1.0,0,313.0,595.0,1.0,282.0,0,0.17250854898911883
336,336,-0.9031938403602886,-0.9,1,315.0,516.0,0.0,199.0,0,0.15972695853309105
337,337,-0.029039034142623432,-0.0,1,419.0,725.0,0.0,746.0,0,0.631316126069864
338,338,0.3311601969993483,0.3,1,468.0,859.0,1.0,593.0,1,0.2404871900604979
339,339,0.7422466455378391,0.7,0,426.0,841.0,1.0,453.0,0,0.03529463465692406
340,340,-0.9666082645880065,-1.0,1,418.0,896.0,0.0,176.0,0,0.5974145073060667
341,341,0.3702610900190082,0.4,1,481.0,768.0,1.0,821.0,1,0.2617631807818015
342,342,-0.5921776465183737,-0.6,1,396.0,560.0,0.0,294.0,0,0.8435879032446895
343,343,0.7636056609497806,0.8,0,485.0,626.0,1.0,289.0,0,0.6504520841583052
344,344,-0.03449440340268506,-0.0,1,300.0,687.0,0.0,2713.0,0,0.686493376054542
345,345,-0.15070325030381304,-0.2,1,428.0,573.0,0.0,2019.0,0,0.5168204013144857
346,346,-0.5808284880164067,-0.6,1,416.0,537.0,0.0,287.0,0,0.43992402046510026
347,347,-0.25979714995088243,-0.3,1,481.0,822.0,0.0,377.0,0,0.8575883523512963
348,348,-0.16081406907369322,-0.2,1,449.0,526.0,1.0,4025.0,1,0.029910135758222545
349,349,0.13767855306085774,0.1,1,290.0,871.0,1.0,3839.0,1,0.4179742591944674
350,350,-0.024427308525286406,-0.0,1,413.0,957.0,0.0,3470.0,0,0.5551305960346644
351,351,0.6754595008442628,0.7,0,434.0,746.0,1.0,250.0,0,0.6812661614923716
352,352,0.36792392226111037,0.4,1,457.0,514.0,1.0,249.0,1,0.5829621390373538
353,353,-0.11053867274515916,-0.1,1,299.0,642.0,0.0,659.0,0,0.7909214602624787
354,354,-0.25574015886793955,-0.3,1,446.0,796.0,0.0,1428.0,0,0.011614813366263577
355,355,0.09878773466376445,0.1,1,251.0,753.0,1.0,3996.0,1,0.3259603338374971
356,356,0.4898231184640487,0.5,1,441.0,881.0,1.0,228.0,1,0.5608343346831486
357,357,0.905512846240091,0.9,0,389.0,680.0,1.0,141.0,0,0.8974169326032291
358,358,-0.05656568315035071,-0.1,1,279.0,898.0,0.0,1053.0,0,0.6970402477646677
359,359,0.9059887085679881,0.9,0,499.0,573.0,1.0,258.0,0,0.5726100000438176
360,360,0.28878478674401586,0.3,1,429.0,715.0,1.0,1596.0,1,0.08863311070830493
361,361,0.8173275818894714,0.8,0,272.0,948.0,1.0,250.0,0,0.7013965495041868
362,362,0.6123273330140995,0.6,0,288.0,961.0,1.0,241.0,0,0.7515154872788748
363,363,0.24536480811679318,0.2,1,458.0,580.0,1.0,522.0,1,0.6446460659883979
364,364,-0.25158316984544604,-0.3,1,491.0,725.0,0.0,504.0,0,0.7458442231211153
365,365,-0.2987976462632129,-0.3,1,377.0,566.0,0.0,2787.0,0,0.06670470820273577
366,366,-0.3839123187042357,-0.4,1,337.0,740.0,0.0,523.0,0,0.32499757647086525
367,367,-0.28134619222925794,-0.3,1,460.0,534.0,0.0,2086.0,0,0.14328960593658024
368,368,0.24366992276538801,0.2,1,466.0,506.0,1.0,318.0,1,0.8155418981269061
369,369,-0.07041031468696479,-0.1,1,285.0,813.0,0.0,3902.0,0,0.19733136868636347
370,370,-0.9838291616786174,-1.0,1,293.0,679.0,0.0,248.0,0,0.7568138565322515
371,371,-0.3097232121378082,-0.3,1,335.0,636.0,0.0,389.0,0,0.9592548051594334
372,372,0.8731533462274261,0.9,0,258.0,786.0,1.0,246.0,0,0.5350164603705854
373,373,-0.3349565653468536,-0.3,1,437.0,706.0,0.0,447.0,0,0.6344097303210627
374,374,-0.6878903694102925,-0.7,1,475.0,927.0,0.0,258.0,0,0.4223855436875613
375,375,-0.09470257633318635,-0.1,1,456.0,580.0,0.0,3964.0,0,0.3104125198021973
376,376,0.5293813233491822,0.5,0,352.0,660.0,1.0,328.0,0,0.5107938148571171
377,377,0.26191692452387905,0.3,1,404.0,968.0,1.0,638.0,1,0.81982104214615
378,378,0.7992235457413501,0.8,0,374.0,714.0,1.0,242.0,0,0.5264295116410455
379,379,0.7953121057152825,0.8,0,464.0,703.0,1.0,53.0,0,0.7814265906139009
380,380,-0.3039218969959363,-0.3,1,450.0,763.0,0.0,697.0,0,0.24941527394182528
381,381,-0.6170138299785954,-0.6,1,297.0,538.0,0.0,295.0,0,0.06499186379812094
382,382,0.6654921649198975,0.7,0,366.0,883.0,1.0,241.0,0,0.6965556787988072
383,383,0.9614271976615829,1.0,0,398.0,924.0,1.0,128.0,0,0.6604572304863158
384,384,-0.09871836812197987,-0.1,1,405.0,767.0,0.0,1108.0,0,0.3013414044100341
385,385,-0.7852538632164621,-0.8,1,254.0,683.0,0.0,303.0,0,0.040410115606721364
386,386,0.5468140640044845,0.5,0,433.0,910.0,1.0,687.0,0,0.011334129476244015
387,387,-0.4328839821766115,-0.4,1,291.0,502.0,0.0,197.0,0,0.7485129212080268
388,388,-0.7495924318110021,-0.7,1,325.0,973.0,0.0,242.0,0,0.03757238437448018
389,389,-0.09436190569616865,-0.1,1,428.0,967.0,0.0,925.0,0,0.9715979825719161
390,390,0.7187018864359072,0.7,0,274.0,885.0,1.0,161.0,0,0.14820941186352243
391,391,0.6806113589873388,0.7,0,278.0,652.0,1.0,220.0,0,0.41523572247825047
392,392,0.232296374604543,0.2,1,460.0,835.0,1.0,225.0,1,0.9584910536901184
393,393,0.7383347207553397,0.7,0,462.0,569.0,1.0,249.0,0,0.3270033520997916
394,394,-0.3733681868877594,-0.4,1,277.0,675.0,0.0,418.0,0,0.6505283120469375
395,395,-0.1516946936905641,-0.2,1,364.0,570.0,0.0,4066.0,0,0.08624055967784072
396,396,0.8694808773211129,0.9,0,391.0,954.0,1.0,225.0,0,0.21328729139145453
397,397,0.9500714766448104,1.0,0,358.0,896.0,1.0,156.0,0,0.840249043311856
398,398,-0.40889467367632903,-0.4,1,486.0,890.0,0.0,324.0,0,0.5509383652712329
399,399,-0.5000219081416959,-0.5,1,290.0,715.0,0.0,665.0,0,0.19145661653317858
400,400,-0.10617359257054781,-0.1,1,335.0,855.0,0.0,680.0,0,0.9006467103388106
401,401,-0.9227623467113424,-0.9,1,284.0,930.0,0.0,326.0,0,0.17632698609617325
402,402,-0.6825845980687348,-0.7,1,464.0,579.0,0.0,187.0,0,0.7175067297180014
403,403,0.45943220601519585,0.5,1,394.0,624.0,1.0,472.0,1,0.3606035758840819
404,404,0.50152349723023,0.5,0,385.0,916.0,1.0,289.0,0,0.660050898204134
405,405,0.44174024732705974,0.4,1,263.0,557.0,1.0,360.0,1,0.5188695544147018
406,406,0.36139581484467254,0.4,1,287.0,573.0,1.0,380.0,1,0.5070122832179741
407,407,-0.7768616746325725,-0.8,1,498.0,558.0,0.0,384.0,0,0.21400021959492643
408,408,-0.891897122198217,-0.9,1,407.0,675.0,0.0,118.0,0,0.7251668881664977
409,409,-0.9304976961146023,-0.9,1,356.0,521.0,0.0,123.0,0,0.2563140523306521
410,410,-0.9553352169594898,-1.0,1,493.0,954.0,0.0,173.0,0,0.6448392514544259
411,411,-0.7626933003425045,-0.8,1,359.0,540.0,0.0,261.0,0,0.44263659184175685
412,412,0.07366101035867434,0.1,1,384.0,726.0,1.0,3830.0,1,0.38706255673861445
413,413,0.05198670070827793,0.1,1,383.0,504.0,0.0,4113.0,0,0.3532471632847539
414,414,0.26321023169390556,0.3,1,452.0,676.0,1.0,3872.0,1,0.041234342284398595
415,415,0.7049643512088755,0.7,0,296.0,832.0,1.0,242.0,0,0.9557971681647212
416,416,-0.8576141384633944,-0.9,1,405.0,509.0,0.0,116.0,0,0.7844618657921109
417,417,-0.8299805799502693,-0.8,1,254.0,869.0,0.0,217.0,0,0.718514414627962
418,418,0.4984317542007952,0.5,1,392.0,603.0,1.0,325.0,1,0.8846113403032619
419,419,-0.5497729650883927,-0.5,1,452.0,808.0,0.0,510.0,0,0.31133703955453884
420,420,0.19747320806116853,0.2,1,498.0,676.0,1.0,3826.0,1,0.11958233693292619
421,421,-0.7065678742144565,-0.7,1,368.0,876.0,0.0,156.0,0,0.9510546268049939
422,422,-0.36124430325509915,-0.4,1,436.0,978.0,0.0,296.0,0,0.6604125044255315
423,423,-0.9885419450418416,-1.0,1,451.0,808.0,0.0,161.0,0,0.1272304255940535
424,424,0.0923790794644972,0.1,1,454.0,731.0,0.0,1885.0,0,0.905761678563983
425,425,-0.056129854573762294,-0.1,1,434.0,686.0,0.0,3880.0,0,0.47152402432452223
426,426,-0.0428943296048816,-0.0,1,329.0,864.0,0.0,3807.0,0,0.3101379759922327
427,427,-0.6640515457342773,-0.7,1,482.0,548.0,0.0,290.0,0,0.6249469302007229
428,428,-0.9939052235535397,-1.0,1,315.0,814.0,0.0,241.0,0,0.16783548147747085
429,429,-0.4653060037138903,-0.5,1,356.0,593.0,0.0,231.0,0,0.8103330961159002
430,430,0.9538871495311543,1.0,0,271.0,627.0,1.0,132.0,0,0.7620063611218623
431,431,-0.47774193762770634,-0.5,1,472.0,827.0,0.0,661.0,0,0.38063607370176045
432,432,0.6530737600600041,0.7,0,427.0,635.0,1.0,298.0,0,0.2382380963952493
433,433,-0.06416823764814583,-0.1,1,330.0,794.0,1.0,3876.0,1,0.5086779850065593
434,434,-0.6546647607884666,-0.7,1,291.0,688.0,0.0,231.0,0,0.981300647287292
435,435,-0.9490827535572173,-0.9,1,395.0,608.0,0.0,157.0,0,0.9939537449286914
436,436,0.21001684193994774,0.2,1,383.0,969.0,1.0,428.0,1,0.6386761749470501
437,437,-0.5882109108393645,-0.6,1,345.0,929.0,0.0,706.0,0,0.11308559692875098
438,438,0.0539696241873151,0.1,1,377.0,833.0,0.0,3790.0,0,0.2755055303536954
439,439,-0.38741973537529173,-0.4,1,295.0,622.0,0.0,383.0,0,0.9776379790644333
440,440,0.11108734433599499,0.1,1,372.0,721.0,1.0,3907.0,1,0.5106908643683331
441,441,0.6831606144710265,0.7,0,439.0,862.0,1.0,199.0,0,0.7299401339079983
442,442,0.41671852261657794,0.4,1,291.0,873.0,1.0,306.0,1,0.844579954588955
443,443,-0.5135920257567275,-0.5,1,262.0,552.0,0.0,766.0,0,0.35464129779208065
444,444,0.9194935481396529,0.9,0,306.0,962.0,1.0,222.0,0,0.5963588360918184
445,445,-0.5355950514485037,-0.5,1,426.0,622.0,0.0,282.0,0,0.7477387484831913
446,446,0.46647819766764975,0.5,1,437.0,765.0,1.0,778.0,1,0.28085463441451863
447,447,-0.3231597319501538,-0.3,1,326.0,938.0,0.0,316.0,0,0.9300255458002067
448,448,0.887715198075441,0.9,0,291.0,863.0,1.0,226.0,0,0.6470674674746586
449,449,0.6755956855624838,0.7,0,408.0,561.0,1.0,211.0,0,0.904982775213581
450,450,0.5978367793312056,0.6,0,396.0,514.0,1.0,310.0,0,0.6595602344438201
451,451,0.2925838577613764,0.3,1,288.0,530.0,1.0,4182.0,1,0.03869908744953854
452,452,-0.5441602901620761,-0.5,1,388.0,572.0,0.0,430.0,0,0.28823671383195304
453,453,-0.2975629459639817,-0.3,1,252.0,974.0,0.0,754.0,0,0.40653482716604605
454,454,0.5876006337866309,0.6,0,421.0,826.0,1.0,253.0,0,0.8245803568903911
455,455,-0.23274870661879965,-0.2,1,325.0,987.0,0.0,3688.0,0,0.04075090505905132
456,456,0.6799364850690048,0.7,0,497.0,813.0,1.0,410.0,0,0.6040798398853469
457,457,-0.6911587363700442,-0.7,1,433.0,696.0,0.0,571.0,0,0.002330342232260252
458,458,0.35997119919952514,0.4,1,325.0,959.0,1.0,196.0,1,0.8968668904916015
459,459,0.47164059272685743,0.5,1,286.0,859.0,1.0,775.0,1,0.3365131069934677
460,460,-0.7293688061645134,-0.7,1,364.0,617.0,0.0,359.0,0,0.533861696985582
461,461,-0.8425106714131503,-0.8,1,486.0,621.0,0.0,153.0,0,0.8998993357805468
462,462,-0.2397077459989787,-0.2,1,332.0,788.0,0.0,650.0,0,0.5001645375273781
463,463,-0.6172468693836335,-0.6,1,474.0,812.0,0.0,214.0,0,0.9709288622821115
464,464,-0.5350093027575773,-0.5,1,362.0,940.0,0.0,398.0,0,0.26869420880382033
465,465,-0.6571182015019137,-0.7,1,405.0,841.0,0.0,314.0,0,0.26348841762241815
466,466,-0.10234058415522473,-0.1,1,295.0,631.0,0.0,644.0,0,0.9773002248199508
467,467,0.9588316080421038,1.0,0,401.0,598.0,1.0,291.0,0,0.00986064256280561
468,468,-0.1743241824283117,-0.2,1,283.0,980.0,0.0,637.0,0,0.7500852441198893
469,469,-0.9734517547967778,-1.0,1,358.0,841.0,0.0,181.0,0,0.7990752216313327
470,470,0.3361961339557993,0.3,1,262.0,516.0,1.0,992.0,1,0.38031637322646605
471,471,-0.46744547736281095,-0.5,1,335.0,867.0,0.0,1048.0,0,0.25004197885181945
472,472,0.6412867817617864,0.6,0,425.0,589.0,1.0,166.0,0,0.4646849393662469
473,473,0.3345906580888809,0.3,1,387.0,767.0,1.0,156.0,1,0.6260170207009549
474,474,0.5922629128575971,0.6,0,342.0,645.0,1.0,183.0,0,0.5944844608737383
475,475,0.4898687067591936,0.5,1,315.0,627.0,1.0,158.0,1,0.5832515301624457
476,476,-0.9696661074520829,-1.0,1,254.0,739.0,0.0,197.0,0,0.7242614477674589
477,477,-0.4850380787859252,-0.5,1,368.0,831.0,0.0,511.0,0,0.269657502958325
478,478,-0.2894520749736569,-0.3,1,435.0,958.0,0.0,2327.0,0,0.0598298050933771
479,479,0.4886788184898201,0.5,1,483.0,700.0,1.0,627.0,1,0.23513388030677984
480,480,-0.07129962677435508,-0.1,1,380.0,621.0,0.0,3999.0,0,0.23613568998481815
481,481,-0.8338107988459267,-0.8,1,478.0,699.0,0.0,213.0,0,0.26474298217731784
482,482,-0.4579262955831116,-0.5,1,476.0,563.0,0.0,621.0,0,0.1324371848542164
483,483,0.9368039644382269,0.9,0,340.0,536.0,1.0,154.0,0,0.02588496482435132
484,484,0.5662828766221915,0.6,0,361.0,797.0,1.0,112.0,0,0.8647494289416455
485,485,0.6058464197772011,0.6,0,367.0,536.0,1.0,637.0,0,0.1799672009426928
486,486,0.30518760879244855,0.3,1,296.0,607.0,1.0,1097.0,1,0.45660554754603944
487,487,0.6474963894615167,0.6,0,416.0,763.0,1.0,191.0,0,0.5382507715006735
488,488,0.0049001971669007105,0.0,1,368.0,970.0,1.0,3662.0,1,0.3835764193683795
489,489,-0.9322904414789792,-0.9,1,335.0,822.0,0.0,123.0,0,0.19506912825047562
490,490,-0.837477884923707,-0.8,1,367.0,856.0,0.0,257.0,0,0.10317236842571309
491,491,-0.299744052201673,-0.3,1,483.0,669.0,0.0,448.0,0,0.7061552033898907
492,492,-0.3216808377871123,-0.3,1,285.0,969.0,0.0,586.0,0,0.325492302881926
493,493,-0.8352747042085265,-0.8,1,341.0,519.0,0.0,370.0,0,0.6939608916933228
494,494,-0.9377169682763415,-0.9,1,455.0,798.0,0.0,217.0,0,0.5565827362074772
495,495,-0.653255089498082,-0.7,1,419.0,548.0,0.0,173.0,0,0.6558451370917248
496,496,-0.881156219663058,-0.9,1,309.0,538.0,0.0,233.0,0,0.6425694406024421
497,497,0.6354658482103848,0.6,0,345.0,548.0,1.0,247.0,0,0.39483402317580185
498,498,-0.8125152279433585,-0.8,1,318.0,941.0,0.0,301.0,0,0.1825429535830072
499,499,0.31813355561853585,0.3,1,369.0,761.0,1.0,320.0,1,0.9340567118009875
500,500,-0.9268945847970149,-0.9,1,386.0,785.0,0.0,249.0,0,0.8186533202037163
501,501,0.45165309843863843,0.5,1,466.0,857.0,1.0,677.0,1,0.16977073306625845
502,502,-0.8591151132690056,-0.9,1,442.0,640.0,0.0,378.0,0,0.27371931343599665
503,503,0.6152207151735081,0.6,0,283.0,830.0,1.0,217.0,0,0.6429646641532548
504,504,0.42942663396215486,0.4,1,258.0,853.0,1.0,379.0,1,0.9771678323693039
505,505,-0.6343695032417371,-0.6,1,296.0,898.0,0.0,406.0,0,0.08083371126755434
506,506,-0.45410580937100575,-0.5,1,291.0,712.0,0.0,177.0,0,0.9186065746175199
507,507,-0.41858173264288223,-0.4,1,315.0,977.0,0.0,778.0,0,0.6779783931432021
508,508,-0.5252601254022273,-0.5,1,397.0,964.0,0.0,219.0,0,0.9268941977825583
509,509,0.6435131053710359,0.6,0,416.0,725.0,1.0,319.0,0,0.13760407275216324
510,510,0.24028270493274295,0.2,1,497.0,663.0,1.0,3840.0,1,0.042112291869302876
511,511,0.45565266821227035,0.5,1,310.0,744.0,1.0,1266.0,1,0.06137532604352669
512,512,-0.018482123319643495,-0.0,1,440.0,729.0,0.0,3831.0,0,0.2743073852716843
513,513,-0.1001250840240786,-0.1,1,463.0,760.0,0.0,1397.0,0,0.7172454029392319
514,514,-0.09376902289968592,-0.1,1,263.0,719.0,0.0,2548.0,0,0.6454498989582732
515,515,0.8678853072907948,0.9,0,475.0,762.0,1.0,253.0,0,0.28890167094654384
516,516,0.5989526171065358,0.6,0,301.0,564.0,1.0,195.0,0,0.6659917808783627
517,517,-0.20718256192121287,-0.2,1,284.0,975.0,0.0,801.0,0,0.9646588065073751
518,518,0.1061134149416385,0.1,1,402.0,608.0,1.0,1770.0,1,0.5141602735633397
519,519,-0.8071560494385372,-0.8,1,465.0,697.0,0.0,268.0,0,0.48215159441257127
520,520,0.6124095883645448,0.6,0,476.0,809.0,1.0,415.0,0,0.22031755508728934
521,521,-0.04223779734237576,-0.0,1,320.0,914.0,0.0,2676.0,0,0.5531130304718416
522,522,0.8956113884385217,0.9,0,430.0,723.0,1.0,237.0,0,0.4370932494793166
523,523,0.2655601731483863,0.3,1,265.0,952.0,1.0,1463.0,1,0.1807839702788412
524,524,-0.04466368344841398,-0.0,1,315.0,946.0,0.0,799.0,0,0.8362123888833087
525,525,-0.9680857180916209,-1.0,1,275.0,722.0,0.0,223.0,0,0.4147333332131574
526,526,0.49777619604113,0.5,1,396.0,503.0,1.0,431.0,1,0.08827998248005953
527,527,-0.45534039250717595,-0.5,1,293.0,518.0,0.0,249.0,0,0.6327206654567434
528,528,0.20924060002608624,0.2,1,493.0,806.0,1.0,451.0,1,0.6107543979106104
529,529,-0.6984047904876443,-0.7,1,362.0,561.0,0.0,297.0,0,0.7762039980056513
530,530,0.2528438949407841,0.3,1,383.0,816.0,1.0,931.0,1,0.41078619663612137
531,531,0.8449263984157991,0.8,0,329.0,523.0,1.0,168.0,0,0.6972989628067569
532,532,0.7557742711480193,0.8,0,345.0,707.0,1.0,428.0,0,0.21411107257298723
533,533,0.07240016863662024,0.1,1,382.0,542.0,0.0,4076.0,0,0.3569296159234081
534,534,-0.7613090462873606,-0.8,1,276.0,929.0,0.0,215.0,0,0.42515320614394225
535,535,-0.04557855362603225,-0.0,1,378.0,773.0,1.0,1639.0,1,0.9301634558433342
536,536,0.734453639760146,0.7,0,334.0,514.0,1.0,242.0,0,0.44514759029563866
537,537,-0.25589793630022295,-0.3,1,367.0,668.0,0.0,665.0,0,0.6889988977695252
538,538,-0.38954621832051406,-0.4,1,423.0,505.0,0.0,412.0,0,0.39499329171289843
539,539,0.19015451457343202,0.2,1,278.0,533.0,1.0,389.0,1,0.9412561474128929
540,540,-0.354834102993727,-0.4,1,358.0,610.0,0.0,432.0,0,0.7462133853586917
541,541,0.4453767506936359,0.4,1,313.0,869.0,1.0,388.0,1,0.26420271459845035
542,542,-0.8941504903476549,-0.9,1,260.0,855.0,0.0,235.0,0,0.5992521914479749
543,543,0.8517251843214673,0.9,0,362.0,847.0,1.0,181.0,0,0.32647271042921966
544,544,0.940024265306898,0.9,0,334.0,668.0,1.0,478.0,0,0.04060514904139123
545,545,-0.11582068939209744,-0.1,1,254.0,880.0,0.0,806.0,0,0.25675155709651687
546,546,0.557384829823452,0.6,0,277.0,606.0,1.0,547.0,0,0.3852181788823471
547,547,-0.89997717766151,-0.9,1,281.0,937.0,0.0,192.0,0,0.5681418263500874
548,548,0.9969102409302806,1.0,0,289.0,951.0,1.0,260.0,0,0.8299691473771987
549,549,-0.7660650669215094,-0.8,1,461.0,728.0,0.0,251.0,0,0.5838522421289791
550,550,-0.9584522059100005,-1.0,1,450.0,834.0,0.0,96.0,0,0.9882164436601684
551,551,-0.565477165332557,-0.6,1,340.0,969.0,0.0,461.0,0,0.7873513445446497
552,552,-0.6288713469738287,-0.6,1,318.0,921.0,0.0,291.0,0,0.330809745502862
553,553,0.48193410642399837,0.5,1,308.0,697.0,1.0,495.0,1,0.5481200890229443
554,554,-0.02376216271723397,-0.0,1,410.0,678.0,0.0,3912.0,0,0.48016152626156905
555,555,-0.4877978746840561,-0.5,1,382.0,827.0,0.0,291.0,0,0.8866600993011865
556,556,0.3843730242966641,0.4,1,455.0,531.0,1.0,164.0,1,0.9832018624160535
557,557,0.8408489975397511,0.8,0,445.0,665.0,1.0,170.0,0,0.4897550689061232
558,558,0.6424833918756034,0.6,0,429.0,584.0,1.0,177.0,0,0.6036414877167601
559,559,0.17122968263583616,0.2,1,317.0,979.0,1.0,704.0,1,0.46356125304688545
560,560,-0.2596880727676374,-0.3,1,372.0,662.0,0.0,796.0,0,0.2677596302432479
561,561,-0.4368574605335711,-0.4,1,250.0,741.0,0.0,369.0,0,0.3020934000658825
562,562,0.5660423297252424,0.6,0,412.0,710.0,1.0,168.0,0,0.4850650068839546
563,563,-0.7965748137173547,-0.8,1,465.0,925.0,0.0,200.0,0,0.10965710965704545
564,564,0.9951294516988711,1.0,0,491.0,713.0,1.0,426.0,0,0.03225007823411863
565,565,0.760299770918748,0.8,0,448.0,569.0,1.0,233.0,0,0.9195580344882552
566,566,-0.06067505807278151,-0.1,1,328.0,848.0,0.0,994.0,0,0.6613302998853706
567,567,0.26353587823476876,0.3,1,447.0,826.0,1.0,437.0,1,0.8537145742695292
568,568,-0.7341600402836814,-0.7,1,390.0,754.0,0.0,86.0,0,0.5563604820832395
569,569,-0.6407200351770577,-0.6,1,493.0,925.0,0.0,312.0,0,0.292335815983809
570,570,0.32029727437235267,0.3,1,324.0,894.0,1.0,242.0,1,0.8619313979096963
571,571,-0.07357290596969523,-0.1,1,490.0,533.0,0.0,3977.0,0,0.22844130480858138
572,572,-0.6493963506466611,-0.6,1,270.0,988.0,0.0,442.0,0,0.2188049010553338
573,573,-0.27018060466013494,-0.3,1,426.0,744.0,0.0,2960.0,0,0.10760481457589988
574,574,-0.15949880139141004,-0.2,1,460.0,711.0,0.0,629.0,0,0.7233259539382992
575,575,0.9916469413329783,1.0,0,467.0,508.0,1.0,175.0,0,0.5136159535287609
576,576,-0.08466525740654984,-0.1,1,418.0,744.0,0.0,3838.0,0,0.42477320682195974
577,577,-0.11325997498607498,-0.1,1,464.0,636.0,0.0,2570.0,0,0.6291648004733056
578,578,0.680967644102098,0.7,0,279.0,790.0,1.0,191.0,0,0.6872667573828664
579,579,-0.9717348213685397,-1.0,1,327.0,878.0,0.0,225.0,0,0.9506751727743596
580,580,-0.8512185563272663,-0.9,1,310.0,777.0,0.0,153.0,0,0.1756001319824252
581,581,0.7554882290478326,0.8,0,437.0,832.0,1.0,761.0,0,0.23319570694152225
582,582,-0.035401480738582514,-0.0,1,338.0,689.0,0.0,3403.0,0,0.4857755391835258
583,583,-0.24754681438209247,-0.2,1,304.0,583.0,0.0,4113.0,0,0.008851834108359213
584,584,0.576747273465064,0.6,0,323.0,653.0,1.0,264.0,0,0.3037720916801513
585,585,-0.18282429522047106,-0.2,1,255.0,755.0,0.0,3990.0,0,0.09519969692133357
586,586,-0.6750429246199128,-0.7,1,306.0,640.0,0.0,244.0,0,0.5478113564948401
587,587,-0.05512678760062628,-0.1,1,443.0,896.0,0.0,1821.0,0,0.481248527584787
588,588,-0.5464097938687178,-0.5,1,471.0,940.0,0.0,259.0,0,0.8600493268262216
589,589,0.41420756138969606,0.4,1,443.0,681.0,1.0,636.0,1,0.4308040751082972
590,590,0.8233320004410658,0.8,0,372.0,598.0,1.0,300.0,0,0.5846938084622151
591,591,0.23187040076495413,0.2,1,420.0,857.0,1.0,463.0,1,0.7774290888243522
592,592,0.5374117786144774,0.5,0,438.0,725.0,1.0,227.0,0,0.2737419130866602
593,593,-0.8869233202550049,-0.9,1,423.0,612.0,0.0,175.0,0,0.5907441318140487
594,594,0.9571707999327488,1.0,0,427.0,929.0,1.0,104.0,0,0.7920367997482558
595,595,-0.9475631898160661,-0.9,1,280.0,819.0,0.0,181.0,0,0.381409704837385
596,596,-0.21257760996149577,-0.2,1,281.0,760.0,0.0,699.0,0,0.46097383390979185
597,597,0.6493039579611943,0.6,0,296.0,502.0,1.0,112.0,0,0.9313807448168909
598,598,0.368259188972873,0.4,1,339.0,735.0,1.0,246.0,1,0.6694006123610645
599,599,-0.9921398313868512,-1.0,1,284.0,804.0,0.0,322.0,0,0.18923072145512743
600,600,0.957538714472945,1.0,0,460.0,908.0,1.0,242.0,0,0.5922600552079481
601,601,0.13773643962147353,0.1,1,379.0,612.0,1.0,999.0,1,0.5647757111085524
602,602,0.018273010550309055,0.0,1,407.0,979.0,0.0,824.0,0,0.9028376780384542
603,603,-0.7607917770875441,-0.8,1,268.0,736.0,0.0,206.0,0,0.08132198550508474
604,604,0.9616759083336783,1.0,0,298.0,806.0,1.0,246.0,0,0.7782307118679272
605,605,-0.1230770760867943,-0.1,1,415.0,769.0,0.0,296.0,0,0.7910576165747909
606,606,0.055155354121438016,0.1,1,286.0,992.0,1.0,3722.0,1,0.4222420501495977
607,607,0.8957829179819936,0.9,0,369.0,522.0,1.0,489.0,0,0.03278216408775403
608,608,-0.10283680272278883,-0.1,1,341.0,842.0,0.0,897.0,0,0.8097351838883117
609,609,0.14640715844870034,0.1,1,304.0,576.0,1.0,4120.0,1,0.40636049866847523
610,610,-0.703586780259855,-0.7,1,364.0,848.0,0.0,278.0,0,0.6351218752861205
611,611,0.7516700345594369,0.8,0,474.0,648.0,1.0,238.0,0,0.9130713334364333
612,612,0.1145866235767079,0.1,1,362.0,769.0,1.0,3869.0,1,0.1445808083932082
613,613,0.04649531988709943,0.0,1,452.0,564.0,1.0,1704.0,1,0.5605145663728637
614,614,0.6727533827062675,0.7,0,475.0,912.0,1.0,133.0,0,0.33201611629280436
615,615,0.9940099329060268,1.0,0,491.0,662.0,1.0,167.0,0,0.5458025416294467
616,616,0.002367880040939463,0.0,1,321.0,901.0,1.0,3778.0,1,0.6882922402637301
617,617,-0.5415410781592704,-0.5,1,440.0,929.0,0.0,1231.0,0,0.022997008905120353
618,618,-0.7791215760728178,-0.8,1,255.0,825.0,0.0,250.0,0,0.7883648820135396
619,619,0.49642277649007416,0.5,1,314.0,828.0,1.0,388.0,1,0.6062611246426153
620,620,0.9724249740816966,1.0,0,388.0,733.0,1.0,209.0,0,0.8513331990130968
621,621,-0.916531123561628,-0.9,1,439.0,920.0,0.0,201.0,0,0.29986052936596463
622,622,-0.7120059864888559,-0.7,1,498.0,594.0,0.0,208.0,0,0.9843044725823928
623,623,-0.7135322807932216,-0.7,1,264.0,609.0,0.0,227.0,0,0.6672190976315293
624,624,0.9516387334650407,1.0,0,321.0,570.0,1.0,209.0,0,0.6644012179885964
625,625,-0.6028726292362805,-0.6,1,349.0,693.0,0.0,238.0,0,0.9338547239337064
626,626,0.02038671396273739,0.0,1,399.0,573.0,0.0,418.0,0,0.8286880141371605
627,627,-0.5241894590366836,-0.5,1,291.0,900.0,0.0,639.0,0,0.00218220198864294
628,628,0.24559971575511663,0.2,1,318.0,573.0,1.0,2959.0,1,0.11582424009413839
629,629,0.16912557702938513,0.2,1,481.0,868.0,1.0,951.0,1,0.9058207221650056
630,630,0.4334743855523082,0.4,1,435.0,993.0,1.0,272.0,1,0.8355924769912856
631,631,0.8070579097796349,0.8,0,294.0,538.0,1.0,188.0,0,0.5079121236493824
632,632,0.7694839398408531,0.8,0,378.0,656.0,1.0,256.0,0,0.4462584951692933
633,633,-0.39722082571130723,-0.4,1,256.0,812.0,0.0,1172.0,0,0.2817907129535657
634,634,-0.07955619787067358,-0.1,1,434.0,635.0,0.0,3931.0,0,0.0007828534173329738
635,635,0.9892621449569394,1.0,0,360.0,874.0,1.0,276.0,0,0.16644321369943837
636,636,0.2765335547756056,0.3,1,421.0,664.0,1.0,825.0,1,0.4132670968748111
637,637,-0.6566571154583662,-0.7,1,416.0,566.0,0.0,228.0,0,0.6380061487792501
638,638,0.8150867301782299,0.8,0,318.0,847.0,1.0,145.0,0,0.5467115820163337
639,639,0.5172868106750668,0.5,0,449.0,743.0,1.0,238.0,0,0.2547808908221194
640,640,0.8341011728312153,0.8,0,296.0,856.0,1.0,318.0,0,0.4232982013978783
641,641,0.578468429966088,0.6,0,487.0,508.0,1.0,345.0,0,0.379226483250789
642,642,-0.5246571551303392,-0.5,1,298.0,890.0,0.0,182.0,0,0.6649126594070535
643,643,0.5156162117898151,0.5,0,352.0,569.0,1.0,269.0,0,0.9360270282554031
644,644,0.4364858011638113,0.4,1,306.0,513.0,1.0,621.0,1,0.11511144791286021
645,645,-0.9995348344264325,-1.0,1,476.0,529.0,0.0,185.0,0,0.10913708826937851
646,646,0.9580792099566924,1.0,0,325.0,634.0,1.0,211.0,0,0.7399282908625698
647,647,-0.28439820913364855,-0.3,1,293.0,794.0,0.0,533.0,0,0.8424916423972988
648,648,0.19964364125828538,0.2,1,439.0,947.0,1.0,664.0,1,0.5441965334612279
649,649,-0.585961630300067,-0.6,1,321.0,765.0,0.0,454.0,0,0.40991079975406786
650,650,0.337176014704331,0.3,1,365.0,531.0,1.0,364.0,1,0.09215636702573415
651,651,0.007333631121437589,0.0,1,453.0,950.0,1.0,3597.0,1,0.13056850826238275
652,652,0.01782698931349902,0.0,1,263.0,883.0,1.0,3854.0,1,0.5602976456226637
653,653,-0.18658311087072765,-0.2,1,304.0,767.0,0.0,309.0,0,0.9021113873922353
654,654,0.9195948505021174,0.9,0,297.0,696.0,1.0,257.0,0,0.3404258426521398
655,655,0.08185297326421637,0.1,1,305.0,555.0,1.0,4140.0,1,0.21763127976336205
656,656,-0.37139525870207524,-0.4,1,339.0,519.0,0.0,242.0,0,0.8146707490520186
657,657,0.9312775699933977,0.9,0,433.0,808.0,1.0,219.0,0,0.7710144235098398
658,658,0.9995377621007595,1.0,0,484.0,551.0,1.0,215.0,0,0.5530089241062984
659,659,0.7287663362290184,0.7,0,350.0,639.0,1.0,501.0,0,0.5711784356344675
660,660,0.06661524797269691,0.1,1,294.0,734.0,1.0,502.0,1,0.8067930779983934
661,661,-0.3439800342018613,-0.3,1,333.0,747.0,0.0,330.0,0,0.5149417243427665
662,662,0.33823620500017126,0.3,1,488.0,852.0,1.0,390.0,1,0.7024377453275034
663,663,0.8430714705574447,0.8,0,297.0,801.0,1.0,142.0,0,0.6038774885540942
664,664,-0.38827469192063147,-0.4,1,303.0,795.0,0.0,742.0,0,0.09023516070651272
665,665,0.2743407891305141,0.3,1,421.0,511.0,1.0,558.0,1,0.7053528521600513
666,666,-0.5208599426720002,-0.5,1,309.0,799.0,0.0,242.0,0,0.7331130028022692
667,667,-0.3809492855468586,-0.4,1,255.0,805.0,0.0,1460.0,0,0.129898816290118
668,668,-0.5981542831252464,-0.6,1,490.0,566.0,0.0,274.0,0,0.6057221958259534
669,669,-0.5086964445150248,-0.5,1,473.0,881.0,0.0,296.0,0,0.8108702235976669
670,670,-0.6825412677670393,-0.7,1,280.0,752.0,0.0,218.0,0,0.87462094142732
671,671,-0.14610227375543006,-0.1,1,392.0,632.0,0.0,1616.0,0,0.40010568779521916
672,672,-0.6296546456790075,-0.6,1,355.0,542.0,0.0,363.0,0,0.6450692131294359
673,673,-0.14418512742422984,-0.1,1,370.0,637.0,0.0,1253.0,0,0.5961167537433515
674,674,0.48147898278319934,0.5,1,261.0,861.0,1.0,398.0,1,0.398858666405304
675,675,0.03205078795506422,0.0,1,277.0,980.0,0.0,343.0,0,0.9647653309123547
676,676,-0.9456087014274557,-0.9,1,433.0,506.0,0.0,181.0,0,0.5864131396951869
677,677,-0.9755229436295387,-1.0,1,481.0,582.0,0.0,307.0,0,0.05620025989717636
678,678,-0.33674497077386634,-0.3,1,409.0,638.0,0.0,1123.0,0,0.44617888173565046
679,679,-0.08274731974157135,-0.1,1,374.0,599.0,1.0,4027.0,1,0.30829646095870256
680,680,-0.8417876372950901,-0.8,1,490.0,734.0,0.0,176.0,0,0.5279624287927606
681,681,0.9468432959376631,0.9,0,383.0,645.0,1.0,152.0,0,0.9925357887828669
682,682,0.3517918995442766,0.4,1,355.0,951.0,1.0,504.0,1,0.12020579153961397
683,683,0.3989639168774257,0.4,1,430.0,514.0,1.0,526.0,1,0.15994713989619558
684,684,-0.3914091987742583,-0.4,1,300.0,683.0,0.0,527.0,0,0.5547340440820906
685,685,-0.26558467030413113,-0.3,1,281.0,546.0,0.0,613.0,0,0.6778624576917278
686,686,-0.043755160336859555,-0.0,1,464.0,864.0,0.0,3672.0,0,0.11009942006484885
687,687,0.7610802575266835,0.8,0,467.0,840.0,1.0,283.0,0,0.1024069954116067
688,688,-0.7687166679848971,-0.8,1,306.0,750.0,0.0,134.0,0,0.7786083069262542
689,689,0.964320311452894,1.0,0,263.0,510.0,1.0,237.0,0,0.8090735768589616
690,690,0.8355340539240936,0.8,0,307.0,837.0,1.0,266.0,0,0.5877578887596845
691,691,-0.3437382990524849,-0.3,1,342.0,935.0,0.0,603.0,0,0.1253837727330962
692,692,0.5462305992999106,0.5,0,330.0,877.0,1.0,203.0,0,0.9845004614416123
693,693,-0.852718574511395,-0.9,1,413.0,661.0,0.0,266.0,0,0.7271516443080969
694,694,0.5241549918702102,0.5,0,449.0,648.0,1.0,283.0,0,0.6048899211312443
695,695,-0.34722868247959604,-0.3,1,435.0,867.0,0.0,488.0,0,0.5239434595584952
696,696,-0.17739385684772935,-0.2,1,471.0,811.0,0.0,648.0,0,0.7058974375088909
697,697,0.8610136069361984,0.9,0,391.0,939.0,1.0,280.0,0,0.9727297329716715
698,698,-0.8478093576060504,-0.8,1,325.0,989.0,0.0,196.0,0,0.4640941994835973
699,699,0.07838064148110457,0.1,1,345.0,910.0,1.0,2285.0,1,0.4980239851612308
700,700,0.6264907362085665,0.6,0,413.0,867.0,1.0,490.0,0,0.05165326029429418
701,701,-0.2166394770587925,-0.2,1,330.0,782.0,0.0,1018.0,0,0.5206768948922715
702,702,0.615588513131105,0.6,0,467.0,948.0,1.0,565.0,0,0.12752421259143176
703,703,-0.559422947223964,-0.6,1,396.0,747.0,0.0,247.0,0,0.3738814560913216
704,704,0.6975893463014187,0.7,0,396.0,823.0,1.0,161.0,0,0.5870092053457665
705,705,-0.7295844268323424,-0.7,1,355.0,664.0,0.0,421.0,0,0.14465288863148296
706,706,-0.14707765093396086,-0.1,1,379.0,679.0,0.0,342.0,0,0.9505350320127034
707,707,0.39051153406928885,0.4,1,313.0,539.0,1.0,2188.0,1,0.16061374691812913
708,708,-0.9710446440786491,-1.0,1,289.0,716.0,0.0,105.0,0,0.5886228873305392
709,709,0.21658709995062053,0.2,1,443.0,628.0,1.0,1009.0,1,0.8760676179199266
710,710,-0.06725794898894155,-0.1,1,283.0,970.0,0.0,3747.0,0,0.44161584913714613
711,711,-0.5846052323142001,-0.6,1,423.0,883.0,0.0,364.0,0,0.384778340423643
712,712,0.09638004185286397,0.1,1,335.0,887.0,1.0,978.0,1,0.8387842976259564
713,713,0.556328386423977,0.6,0,435.0,595.0,1.0,330.0,0,0.3144593734014798
714,714,-0.25514744304557224,-0.3,1,357.0,962.0,0.0,281.0,0,0.7168959166535658
715,715,0.18763775089290835,0.2,1,368.0,615.0,1.0,407.0,1,0.9085042461261941
716,716,-0.7604849977032073,-0.8,1,476.0,547.0,0.0,277.0,0,0.20821733306103696
717,717,-0.7437556227172311,-0.7,1,405.0,579.0,0.0,146.0,0,0.538092510964062
718,718,0.7145377632651297,0.7,0,288.0,552.0,1.0,390.0,0,0.7201414681096833
719,719,-0.6623762576322996,-0.7,1,251.0,782.0,0.0,227.0,0,0.6742094690909652
720,720,0.16224331809776427,0.2,1,385.0,509.0,1.0,376.0,1,0.9072950798164444
721,721,-0.5250946756458623,-0.5,1,392.0,901.0,0.0,257.0,0,0.5801989976306451
722,722,-0.17059867156975228,-0.2,1,496.0,672.0,0.0,512.0,0,0.5801751162306225
723,723,-0.9303520907711902,-0.9,1,343.0,538.0,0.0,149.0,0,0.9506845877996074
724,724,-0.49082957871298705,-0.5,1,403.0,701.0,0.0,216.0,0,0.41107279175239986
725,725,-0.3329443064215145,-0.3,1,370.0,824.0,0.0,956.0,0,0.17882049927609367
726,726,0.5385792476384204,0.5,0,486.0,501.0,1.0,283.0,0,0.8243265863250545
727,727,0.2723826831617646,0.3,1,412.0,895.0,1.0,1103.0,1,0.4357222610069029
728,728,0.9073597231345325,0.9,0,345.0,569.0,1.0,176.0,0,0.6748614803793981
729,729,-0.7361949904872489,-0.7,1,422.0,659.0,0.0,239.0,0,0.9941417448259602
730,730,0.4091532695705886,0.4,1,489.0,696.0,1.0,595.0,1,0.822736730602443
731,731,-0.471135174711691,-0.5,1,289.0,979.0,0.0,472.0,0,0.18088548134936866
732,732,-0.03868778870696099,-0.0,1,325.0,753.0,0.0,2042.0,0,0.6797927369388835
733,733,-0.3451667490363781,-0.3,1,355.0,756.0,0.0,199.0,0,0.8106522544600451
734,734,0.09865734897429301,0.1,1,497.0,708.0,1.0,3795.0,1,0.052962936235466884
735,735,-0.5819009863940032,-0.6,1,255.0,805.0,0.0,220.0,0,0.8266083831512386
736,736,0.8287405121767764,0.8,0,412.0,723.0,1.0,345.0,0,0.06275507437907624
737,737,0.17634129079172434,0.2,1,478.0,517.0,1.0,4005.0,1,0.12053424543395608
738,738,0.9508186863257189,1.0,0,403.0,938.0,1.0,169.0,0,0.5500486997048215
739,739,0.10663785167101714,0.1,1,427.0,854.0,1.0,439.0,1,0.8285052074609485
740,740,0.8025186109631612,0.8,0,433.0,803.0,1.0,164.0,0,0.7360113668486168
741,741,-0.27303013778538254,-0.3,1,399.0,704.0,0.0,747.0,0,0.6935374196937574
742,742,-0.09746162142126069,-0.1,1,301.0,633.0,0.0,486.0,0,0.21095603481286362
743,743,-0.03628973979768024,-0.0,1,255.0,597.0,0.0,498.0,0,0.687014880103152
744,744,-0.8071651250098866,-0.8,1,482.0,942.0,0.0,256.0,0,0.5501764741059283
745,745,0.43561312180909284,0.4,1,452.0,760.0,1.0,418.0,1,0.23326462860881203
746,746,0.904386211368851,0.9,0,290.0,887.0,1.0,203.0,0,0.6929457663089211
747,747,-0.5541373549417636,-0.6,1,474.0,947.0,0.0,109.0,0,0.995997363054615
748,748,-0.017468204843851254,-0.0,1,268.0,622.0,1.0,4110.0,1,0.3953085237977828
749,749,0.34429455409983056,0.3,1,301.0,795.0,1.0,2354.0,1,0.2853766939556879
750,750,0.5852160166072671,0.6,0,408.0,515.0,1.0,177.0,0,0.929151553124156
751,751,0.5531727900391261,0.6,0,482.0,937.0,1.0,241.0,0,0.6072589800185547
752,752,0.9859627550173489,1.0,0,483.0,963.0,1.0,194.0,0,0.30472488672188314
753,753,0.842427358547496,0.8,0,408.0,788.0,1.0,264.0,0,0.2285079894871419
754,754,-0.11041531914337521,-0.1,1,335.0,701.0,0.0,424.0,0,0.8086258960658486
755,755,-0.3198248113341491,-0.3,1,472.0,978.0,0.0,330.0,0,0.5996130064182351
756,756,-0.880001322747948,-0.9,1,271.0,525.0,0.0,174.0,0,0.917581654107159
757,757,0.6469267832732133,0.6,0,336.0,859.0,1.0,465.0,0,0.17408163349549877
758,758,-0.6643463795531617,-0.7,1,361.0,827.0,0.0,152.0,0,0.9108617814902399
759,759,0.8596400975330019,0.9,0,286.0,522.0,1.0,262.0,0,0.2866647740167586
760,760,-0.09944880399053191,-0.1,1,435.0,612.0,0.0,3953.0,0,0.30097954716275654
761,761,-0.976491084401417,-1.0,1,411.0,693.0,0.0,216.0,0,0.15091737160593732
762,762,0.008042790053679916,0.0,1,352.0,936.0,0.0,482.0,0,0.9259427166772808
763,763,0.8039685956302425,0.8,0,365.0,857.0,1.0,358.0,0,0.34033257297344177
764,764,-0.716645589052783,-0.7,1,279.0,580.0,0.0,181.0,0,0.37897729578555583
765,765,0.8918974180422117,0.9,0,371.0,629.0,1.0,290.0,0,0.65128028600881
766,766,0.42095315223397334,0.4,1,419.0,814.0,1.0,1567.0,1,0.028315068928707943
767,767,0.34632716941064823,0.3,1,277.0,643.0,1.0,590.0,1,0.668168376424916
768,768,0.4959790865587419,0.5,1,336.0,652.0,1.0,292.0,1,0.10526504076326393
769,769,-0.3456492008767489,-0.3,1,495.0,961.0,0.0,484.0,0,0.8029890397959089
770,770,0.9278823425582623,0.9,0,298.0,690.0,1.0,592.0,0,0.0788751026667055
771,771,0.12536118854706846,0.1,1,324.0,525.0,1.0,2381.0,1,0.6351116305384895
772,772,-0.7026578420713778,-0.7,1,409.0,915.0,0.0,156.0,0,0.7768317083163433
773,773,-0.08002311356121439,-0.1,1,379.0,899.0,0.0,492.0,0,0.7177083854212152
774,774,-0.9339466208339795,-0.9,1,401.0,816.0,0.0,163.0,0,0.9238611990684747
775,775,-0.9157662765026371,-0.9,1,441.0,554.0,0.0,155.0,0,0.9255671478172004
776,776,-0.18291605098918007,-0.2,1,364.0,929.0,0.0,567.0,0,0.9133218295189715
777,777,0.8415860094216059,0.8,0,404.0,726.0,1.0,180.0,0,0.4822946270840225
778,778,0.6665890976486544,0.7,0,428.0,974.0,1.0,128.0,0,0.9747279997583602
779,779,-0.7331360782430678,-0.7,1,424.0,621.0,0.0,235.0,0,0.4648291592492386
780,780,0.5692420842168333,0.6,0,393.0,657.0,1.0,400.0,0,0.43077162150875115
781,781,0.5250469735608552,0.5,0,294.0,961.0,1.0,535.0,0,0.3504463741302093
782,782,0.8052185882380738,0.8,0,384.0,881.0,1.0,285.0,0,0.7322357130535007
783,783,0.5303419632847455,0.5,0,346.0,767.0,1.0,317.0,0,0.8742805036351557
784,784,0.7123183522655931,0.7,0,255.0,743.0,1.0,232.0,0,0.6842206295283645
785,785,-0.06911111529891611,-0.1,1,463.0,857.0,0.0,2120.0,0,0.6269801369331788
786,786,-0.287913454076264,-0.3,1,400.0,976.0,0.0,504.0,0,0.707767662021382
787,787,0.34579149376362217,0.3,1,380.0,756.0,1.0,664.0,1,0.05856918244371789
788,788,0.7759635068315414,0.8,0,293.0,762.0,1.0,205.0,0,0.6424890447027916
789,789,0.7558999594373701,0.8,0,353.0,713.0,1.0,274.0,0,0.2124130237721038
790,790,0.26609643140249073,0.3,1,302.0,613.0,1.0,265.0,1,0.9705320500376087
791,791,-0.3753855226162186,-0.4,1,262.0,917.0,0.0,241.0,0,0.22238628436905727
792,792,0.18707899262180372,0.2,1,355.0,640.0,1.0,435.0,1,0.5938655285139625
793,793,-0.39631666010633926,-0.4,1,271.0,549.0,0.0,170.0,0,0.6429056414987318
794,794,-0.21257310853886868,-0.2,1,485.0,865.0,0.0,1310.0,0,0.1811067982832909
795,795,0.8394732683257855,0.8,0,461.0,636.0,1.0,193.0,0,0.9719683394262603
796,796,-0.2082755598344721,-0.2,1,272.0,520.0,0.0,1608.0,0,0.686144122653327
797,797,-0.20762985253737654,-0.2,1,316.0,847.0,0.0,847.0,0,0.7018367043520829
798,798,0.4575078373992727,0.5,1,267.0,935.0,1.0,358.0,1,0.9664105349072145
799,799,0.5285632491182128,0.5,0,350.0,973.0,1.0,157.0,0,0.6625509573876852
800,800,0.3685310616272781,0.4,1,345.0,662.0,1.0,343.0,1,0.9394238825286146
801,801,0.9869033732787458,1.0,0,265.0,760.0,1.0,135.0,0,0.7468157511896439
802,802,-0.49145832123715394,-0.5,1,430.0,679.0,0.0,321.0,0,0.8100033522084571
803,803,0.8482028630169007,0.8,0,294.0,842.0,1.0,154.0,0,0.9112937133726641
804,804,0.18192939911335393,0.2,1,299.0,533.0,1.0,838.0,1,0.7659726433041752
805,805,0.009444315901721678,0.0,1,446.0,585.0,1.0,3949.0,1,0.4609390121128223
806,806,-0.4932860273786501,-0.5,1,440.0,949.0,0.0,461.0,0,0.2807763679158666
807,807,-0.8604802344616373,-0.9,1,328.0,753.0,0.0,239.0,0,0.6881540495143164
808,808,0.395137535415266,0.4,1,434.0,754.0,1.0,472.0,1,0.197185742115491
809,809,0.9614375665122046,1.0,0,497.0,914.0,1.0,319.0,0,0.19257386959565925
810,810,-0.7796682952879539,-0.8,1,269.0,576.0,0.0,175.0,0,0.9895903924501249
811,811,-0.8243186472986861,-0.8,1,492.0,850.0,0.0,248.0,0,0.911452914332482
812,812,0.13414369088525602,0.1,1,327.0,944.0,1.0,3729.0,1,0.2520024310779736
813,813,-0.9609130855212227,-1.0,1,480.0,921.0,0.0,369.0,0,0.01088967119789186
814,814,0.3599094716931339,0.4,1,439.0,677.0,1.0,374.0,1,0.44074376330526877
815,815,0.9632465258472178,1.0,0,454.0,611.0,1.0,315.0,0,0.12476584358746245
816,816,0.5410676753073835,0.5,0,467.0,954.0,1.0,389.0,0,0.131339458266026
817,817,0.04632741781373029,0.0,1,373.0,774.0,1.0,1023.0,1,0.6708592493737491
818,818,0.9728090080563954,1.0,0,460.0,782.0,1.0,268.0,0,0.3875791165241286
819,819,-0.00352111727461768,-0.0,1,376.0,711.0,0.0,1003.0,0,0.7239896458862091
820,820,-0.7137419714293161,-0.7,1,268.0,904.0,0.0,358.0,0,0.33617201030250776
821,821,0.7790777678648995,0.8,0,267.0,672.0,1.0,291.0,0,0.7094681485476797
822,822,-0.5983332502922416,-0.6,1,276.0,501.0,0.0,223.0,0,0.7368141840491051
823,823,0.11533047319251133,0.1,1,357.0,611.0,1.0,4032.0,1,0.2998268908653837
824,824,-0.9132837389402102,-0.9,1,291.0,701.0,0.0,228.0,0,0.816981731854358
825,825,-0.4397729094435312,-0.4,1,476.0,582.0,0.0,282.0,0,0.3700991283813906
826,826,0.726424092428918,0.7,0,312.0,563.0,1.0,485.0,0,0.09123818768696756
827,827,0.9148922400195683,0.9,0,304.0,637.0,1.0,189.0,0,0.5195493744227111
828,828,0.7740032371397694,0.8,0,364.0,523.0,1.0,203.0,0,0.5323030685525337
829,829,-0.3302382368128718,-0.3,1,310.0,899.0,0.0,681.0,0,0.36297767628072675
830,830,-0.7899855961934015,-0.8,1,453.0,814.0,0.0,173.0,0,0.7117820787286931
831,831,-0.29599573466255236,-0.3,1,322.0,922.0,0.0,966.0,0,0.10344409296846346
832,832,0.8737358442474237,0.9,0,364.0,894.0,1.0,172.0,0,0.7695472356578543
833,833,-0.2727133652119187,-0.3,1,479.0,772.0,0.0,1559.0,0,0.30148281611101246
834,834,-0.5487369844838537,-0.5,1,359.0,746.0,0.0,365.0,0,0.07077740657660914
835,835,0.9237869386774977,0.9,0,369.0,544.0,1.0,197.0,0,0.5764367553030185
836,836,-0.9623254353810102,-1.0,1,435.0,560.0,0.0,145.0,0,0.29143124736382353
837,837,-0.7684782066126008,-0.8,1,253.0,823.0,0.0,244.0,0,0.7810300478873089
838,838,-0.20472140732191613,-0.2,1,366.0,937.0,0.0,1307.0,0,0.5009524170200782
839,839,-0.7529973601795554,-0.8,1,314.0,552.0,0.0,364.0,0,0.4384846339110904
840,840,-0.8706235005241734,-0.9,1,390.0,777.0,0.0,263.0,0,0.720692170223931
841,841,0.3569200512447286,0.4,1,303.0,953.0,1.0,754.0,1,0.1993687591649168
842,842,-0.5107513007552595,-0.5,1,288.0,894.0,0.0,428.0,0,0.28116833653251816
843,843,-0.4529695306984245,-0.5,1,433.0,896.0,0.0,671.0,0,0.5640445025514959
844,844,0.5990582574130288,0.6,0,325.0,933.0,1.0,142.0,0,0.7115108671931002
845,845,0.7747828944645787,0.8,0,395.0,863.0,1.0,312.0,0,0.6037101775463102
846,846,0.8361399861874186,0.8,0,421.0,608.0,1.0,191.0,0,0.5428265882767005
847,847,-0.9577747193031938,-1.0,1,259.0,951.0,0.0,360.0,0,0.7394466414595474
848,848,0.32909845157359596,0.3,1,443.0,940.0,1.0,617.0,1,0.4407146586427123
849,849,-0.24844152246861095,-0.2,1,408.0,886.0,0.0,356.0,0,0.9435538972138788
850,850,-0.21576943448175356,-0.2,1,350.0,807.0,0.0,313.0,0,0.9970690998349842
851,851,-0.10482964421491947,-0.1,1,485.0,835.0,0.0,3680.0,0,0.4137600148804592
852,852,-0.32658355539889494,-0.3,1,273.0,755.0,0.0,552.0,0,0.47935600859656025
853,853,0.8100719492712567,0.8,0,359.0,852.0,1.0,229.0,0,0.30249561249410006
854,854,-0.6964276534333094,-0.7,1,429.0,676.0,0.0,305.0,0,0.2179613892691259
855,855,0.6914927391032286,0.7,0,437.0,839.0,1.0,504.0,0,0.14201677807115265
856,856,0.5350256751383948,0.5,0,300.0,935.0,1.0,525.0,0,0.18684475286596214
857,857,-0.4884365772730106,-0.5,1,345.0,599.0,0.0,306.0,0,0.9084875687185042
858,858,-0.420632264446696,-0.4,1,277.0,744.0,0.0,1069.0,0,0.3344945970096227
859,859,-0.45312876708864724,-0.5,1,305.0,819.0,0.0,336.0,0,0.3512857734550109
860,860,-0.06547677943222285,-0.1,1,368.0,580.0,0.0,3482.0,0,0.4857163792402258
861,861,0.8419000953597022,0.8,0,298.0,595.0,1.0,497.0,0,0.22054111752004624
862,862,0.11485535725081397,0.1,1,303.0,875.0,1.0,3822.0,1,0.27406153962497504
863,863,0.9005621580272416,0.9,0,351.0,800.0,1.0,269.0,0,0.20289598343560278
864,864,0.6082379109196945,0.6,0,420.0,669.0,1.0,351.0,0,0.601433594700991
865,865,-0.3162118109827572,-0.3,1,473.0,994.0,0.0,763.0,0,0.3122567077090137
866,866,-0.8706613328289645,-0.9,1,371.0,623.0,0.0,196.0,0,0.9066574704640574
867,867,-0.4604180839587837,-0.5,1,375.0,575.0,0.0,310.0,0,0.7041150322750588
868,868,0.47110674755831905,0.5,1,372.0,677.0,1.0,261.0,1,0.9115859753622808
869,869,0.41861579057517395,0.4,1,462.0,533.0,1.0,365.0,1,0.954482759387895
870,870,0.044518564237696845,0.0,1,412.0,807.0,1.0,3451.0,1,0.893812219371382
871,871,0.9643129226848326,1.0,0,424.0,889.0,1.0,207.0,0,0.6739370036590909
872,872,-0.9528619175278239,-1.0,1,296.0,692.0,0.0,212.0,0,0.5850757932327514
873,873,0.28014600292004266,0.3,1,456.0,610.0,1.0,1994.0,1,0.2256189736618196
874,874,0.40408369846246406,0.4,1,394.0,963.0,1.0,303.0,1,0.23321059632857855
875,875,0.8280478584147257,0.8,0,350.0,803.0,1.0,187.0,0,0.7348689591060268
876,876,-0.5333933000321942,-0.5,1,409.0,628.0,0.0,733.0,0,0.1786625925455213
877,877,0.813475772472906,0.8,0,277.0,706.0,1.0,137.0,0,0.9301143578274743
878,878,0.23562439527621049,0.2,1,468.0,849.0,1.0,1433.0,1,0.1753626469181384
879,879,0.018731235596668894,0.0,1,303.0,962.0,1.0,3735.0,1,0.10529066234392825
880,880,0.5716279882906212,0.6,0,309.0,964.0,1.0,377.0,0,0.5981521323131564
881,881,0.7260523758659325,0.7,0,393.0,740.0,1.0,317.0,0,0.44417236374388214
882,882,0.9973694100034656,1.0,0,463.0,919.0,1.0,178.0,0,0.3264627120849716
883,883,0.2919400028222283,0.3,1,346.0,781.0,1.0,693.0,1,0.2793852418424909
884,884,0.7891164751550812,0.8,0,367.0,678.0,1.0,205.0,0,0.5762417357074568
885,885,0.5164853051666265,0.5,0,278.0,867.0,1.0,155.0,0,0.7939648887564301
886,886,0.929912590996969,0.9,0,439.0,788.0,1.0,183.0,0,0.7500764231917721
887,887,-0.3837558722315271,-0.4,1,376.0,939.0,0.0,735.0,0,0.295314409703169
888,888,-0.32933891402683946,-0.3,1,260.0,877.0,0.0,1083.0,0,0.1680615884351614
889,889,-0.09509938872475798,-0.1,1,398.0,953.0,0.0,3649.0,0,0.13599276920496262
890,890,-0.6887541367484584,-0.7,1,378.0,524.0,0.0,308.0,0,0.059604317192228584
891,891,0.4097383315011509,0.4,1,483.0,803.0,1.0,334.0,1,0.7679042563157453
892,892,-0.47126732969547125,-0.5,1,286.0,503.0,0.0,291.0,0,0.7938234185547888
893,893,0.47799296951996095,0.5,1,429.0,703.0,1.0,578.0,1,0.12904624205864523
894,894,0.5199060617639328,0.5,0,483.0,936.0,1.0,311.0,0,0.7696728316667322
895,895,-0.5047696680483393,-0.5,1,335.0,558.0,0.0,177.0,0,0.8408357422094055
896,896,-0.6205311102868574,-0.6,1,462.0,866.0,0.0,262.0,0,0.6330991868552138
897,897,0.9326915378018146,0.9,0,344.0,743.0,1.0,253.0,0,0.6929780995516057
898,898,0.16364916441229527,0.2,1,458.0,545.0,1.0,487.0,1,0.7326778430052551
899,899,0.5348894287564163,0.5,0,323.0,685.0,1.0,172.0,0,0.8170757796801745
900,900,0.3874519789919946,0.4,1,262.0,991.0,1.0,417.0,1,0.2729541433964483
901,901,-0.1994460763523498,-0.2,1,391.0,804.0,0.0,295.0,0,0.7344155303141664
902,902,-0.15463900249268625,-0.2,1,463.0,591.0,0.0,266.0,0,0.8840640482740206
903,903,0.5196557199400371,0.5,0,444.0,976.0,1.0,290.0,0,0.9218892007560731
904,904,-0.38393127027270535,-0.4,1,426.0,835.0,0.0,239.0,0,0.8274409413523828
905,905,0.7056588627015228,0.7,0,482.0,998.0,1.0,540.0,0,0.17679071284881054
906,906,-0.06246379071348773,-0.1,1,265.0,611.0,0.0,4124.0,0,0.27087739810270506
907,907,0.09709641858818663,0.1,1,385.0,678.0,1.0,447.0,1,0.7817898954228663
908,908,-0.26064513992888716,-0.3,1,337.0,916.0,0.0,407.0,0,0.7599464458544692
909,909,-0.0868297344952762,-0.1,1,302.0,655.0,0.0,743.0,0,0.9394125399644231
910,910,-0.11030455901527425,-0.1,1,267.0,727.0,0.0,536.0,0,0.7296967646179668
911,911,-0.8947828921273593,-0.9,1,495.0,927.0,0.0,178.0,0,0.536249160289349
912,912,-0.5815521622789008,-0.6,1,410.0,842.0,0.0,348.0,0,0.3655183009689751
913,913,0.03459268420323358,0.0,1,296.0,531.0,1.0,4173.0,1,0.3614151373148764
914,914,-0.9801011045211123,-1.0,1,384.0,763.0,0.0,173.0,0,0.2463430680955866
915,915,0.24888943912809203,0.2,1,319.0,523.0,1.0,688.0,1,0.7636399533011572
916,916,0.9827313190076152,1.0,0,400.0,861.0,1.0,409.0,0,0.003925904316982698
917,917,0.3917360176514024,0.4,1,297.0,574.0,1.0,509.0,1,0.8299764834565688
918,918,0.5514855424641403,0.6,0,359.0,898.0,1.0,583.0,0,0.4911345429381795
919,919,0.11197341797185612,0.1,1,356.0,994.0,1.0,2340.0,1,0.2754445275706894
920,920,-0.7887322542784869,-0.8,1,304.0,627.0,0.0,79.0,0,0.8552477555609307
921,921,0.5334862965776603,0.5,0,403.0,581.0,1.0,316.0,0,0.8376679553705593
922,922,0.6739880644779055,0.7,0,412.0,636.0,1.0,302.0,0,0.5339417761577853
923,923,-0.5566843449853758,-0.6,1,493.0,872.0,0.0,325.0,0,0.17705077549921455
924,924,0.7184026828156551,0.7,0,372.0,710.0,1.0,228.0,0,0.37052678105116543
925,925,0.45176507529460075,0.5,1,352.0,693.0,1.0,605.0,1,0.17570350981337446
926,926,-0.03782960736008345,-0.0,1,359.0,516.0,0.0,4125.0,0,0.21877278460976557
927,927,0.12065667157306925,0.1,1,438.0,694.0,1.0,3868.0,1,0.36002145138435515
928,928,0.6865553407287472,0.7,0,385.0,518.0,1.0,227.0,0,0.6839181109037402
929,929,-0.15665583968751284,-0.2,1,323.0,612.0,0.0,4065.0,0,0.08788940876093898
930,930,-0.2867949768068865,-0.3,1,436.0,731.0,0.0,1293.0,0,0.14210945598473512
931,931,0.6065661346074565,0.6,0,478.0,917.0,1.0,255.0,0,0.7003283055228169
932,932,-0.8179729850849611,-0.8,1,256.0,528.0,0.0,116.0,0,0.6666876630656878
933,933,-0.0816590672963109,-0.1,1,457.0,947.0,0.0,796.0,0,0.9363825872198981
934,934,-0.181613451206053,-0.2,1,271.0,989.0,0.0,960.0,0,0.7883053670371482
935,935,0.2580525304196446,0.3,1,258.0,533.0,1.0,1509.0,1,0.3840355968355491
936,936,-0.30562681584756746,-0.3,1,275.0,666.0,0.0,849.0,0,0.4221168849778124
937,937,0.4935838383786897,0.5,1,474.0,906.0,1.0,350.0,1,0.959624182886347
938,938,0.3644875239287493,0.4,1,408.0,559.0,1.0,723.0,1,0.09959408635773714
939,939,0.2963143681603648,0.3,1,341.0,896.0,1.0,603.0,1,0.2762807100245237
940,940,0.7720160958535105,0.8,0,410.0,825.0,1.0,275.0,0,0.4555369032479202
941,941,0.1321902336280758,0.1,1,327.0,750.0,1.0,3923.0,1,0.12021296075777776
942,942,0.15585181600376807,0.2,1,261.0,985.0,1.0,1134.0,1,0.5541617885195571
943,943,-0.4220266975900526,-0.4,1,306.0,512.0,0.0,502.0,0,0.7715120200448498
944,944,0.5500342950096817,0.6,0,278.0,814.0,1.0,318.0,0,0.6781200678519392
945,945,-0.08928861224047946,-0.1,1,461.0,830.0,0.0,2239.0,0,0.6044345380103119
946,946,-0.22363978397904405,-0.2,1,341.0,905.0,0.0,3754.0,0,0.14296808562827323
947,947,0.9714099761940895,1.0,0,360.0,828.0,1.0,102.0,0,0.4264773041673705
948,948,0.7674914260389696,0.8,0,449.0,979.0,1.0,182.0,0,0.6443848528218764
949,949,0.22986357539735347,0.2,1,346.0,685.0,1.0,499.0,1,0.6569748566093747
950,950,0.9554541036053126,1.0,0,319.0,687.0,1.0,164.0,0,0.7409071048703025
951,951,0.5180520476037471,0.5,0,331.0,926.0,1.0,213.0,0,0.5115398456640239
952,952,0.7798554120071037,0.8,0,387.0,848.0,1.0,285.0,0,0.17391119954880896
953,953,-0.9610811032592914,-1.0,1,330.0,744.0,0.0,186.0,0,0.5113656853082671
954,954,0.7532401674263902,0.8,0,366.0,879.0,1.0,275.0,0,0.044298083213372474
955,955,-0.4442364258782432,-0.4,1,445.0,835.0,0.0,220.0,0,0.7063266843753795
956,956,0.5039418164362861,0.5,0,258.0,568.0,1.0,504.0,0,0.028463650129343487
957,957,0.5989093397395588,0.6,0,478.0,597.0,1.0,275.0,0,0.8676097051135206
958,958,-0.1318639244700801,-0.1,1,454.0,582.0,0.0,3734.0,0,0.19181956907559627
959,959,0.2857765869706985,0.3,1,484.0,961.0,1.0,425.0,1,0.9070568812252089
960,960,0.5022884997444428,0.5,0,426.0,674.0,1.0,260.0,0,0.14697007403093854
961,961,0.6590037156482638,0.7,0,440.0,611.0,1.0,229.0,0,0.8207597803725599
962,962,0.453646879673937,0.5,1,383.0,787.0,1.0,510.0,1,0.2702227716942791
963,963,0.392039558084327,0.4,1,472.0,767.0,1.0,291.0,1,0.5282172396379916
964,964,0.19551452188240637,0.2,1,301.0,818.0,1.0,531.0,1,0.905150520713408
965,965,-0.1471947703866805,-0.1,1,252.0,760.0,0.0,3528.0,0,0.22574819687281844
966,966,-0.6032078448593712,-0.6,1,291.0,995.0,0.0,224.0,0,0.814967031537497
967,967,0.966513313794992,1.0,0,264.0,713.0,1.0,253.0,0,0.12688115139979805
968,968,-0.6693004224215879,-0.7,1,280.0,509.0,0.0,171.0,0,0.2400890503666434
969,969,-0.9164143523271837,-0.9,1,336.0,743.0,0.0,171.0,0,0.7406626179699898
970,970,0.7149857582187114,0.7,0,394.0,720.0,1.0,186.0,0,0.5923407533616639
971,971,0.0009748136811278396,0.0,1,451.0,532.0,1.0,1257.0,1,0.8341089638506336
972,972,0.6866682034839346,0.7,0,353.0,573.0,1.0,294.0,0,0.6641181750874376
973,973,-0.9749167512770469,-1.0,1,298.0,608.0,0.0,244.0,0,0.7933390827644954
974,974,-0.5493086992169063,-0.5,1,313.0,581.0,0.0,226.0,0,0.6499847212595574
975,975,-0.8039050190587913,-0.8,1,487.0,678.0,0.0,225.0,0,0.20374632012926341
976,976,0.18250470574332467,0.2,1,270.0,626.0,1.0,464.0,1,0.22573635856531937
977,977,0.963135184701259,1.0,0,331.0,629.0,1.0,150.0,0,0.9063146447464999
978,978,0.40686346050896005,0.4,1,289.0,812.0,1.0,439.0,1,0.7417644665950603
979,979,0.6553212392290153,0.7,0,349.0,637.0,1.0,274.0,0,0.8322022026839924
980,980,-0.18329220977569083,-0.2,1,416.0,740.0,0.0,404.0,0,0.585570172186192
981,981,0.6333648693847131,0.6,0,301.0,585.0,1.0,434.0,0,0.1349263049842826
982,982,-0.39847136884332346,-0.4,1,426.0,729.0,0.0,505.0,0,0.29564943749680983
983,983,-0.8456117276791548,-0.8,1,460.0,998.0,0.0,442.0,0,0.03160619532678488
984,984,-0.8375456494895979,-0.8,1,401.0,531.0,0.0,178.0,0,0.7436226053233282
985,985,-0.9943447752364001,-1.0,1,262.0,676.0,0.0,182.0,0,0.8517092441834709
986,986,-0.6365983594623694,-0.6,1,460.0,799.0,0.0,261.0,0,0.08680715712701104
987,987,0.9480091019539634,0.9,0,346.0,694.0,1.0,320.0,0,0.37602629384154485
988,988,0.3022837893779404,0.3,1,336.0,701.0,1.0,333.0,1,0.6904767170938707
989,989,-0.17968917177357469,-0.2,1,478.0,921.0,0.0,3601.0,0,0.037138002468231845
990,990,-0.8022595872727349,-0.8,1,279.0,725.0,0.0,196.0,0,0.8388082300323876
991,991,0.4552032538115991,0.5,1,433.0,561.0,1.0,406.0,1,0.18375455752648984
992,992,0.8990488699987398,0.9,0,378.0,730.0,1.0,222.0,0,0.2471474618317816
993,993,-0.727788888902722,-0.7,1,459.0,813.0,0.0,128.0,0,0.4512523366862
994,994,0.8415087491562703,0.8,0,468.0,968.0,1.0,214.0,0,0.7222396556547569
995,995,0.517712270272922,0.5,0,445.0,940.0,1.0,405.0,0,0.6097635468059436
996,996,-0.5172127094755348,-0.5,1,269.0,771.0,0.0,300.0,0,0.5668949951980827
997,997,0.9111421751982827,0.9,0,380.0,580.0,1.0,230.0,0,0.9387898730355307
998,998,-0.41868920185358616,-0.4,1,466.0,955.0,0.0,429.0,0,0.8646291761328134
999,999,0.3440829629350801,0.3,1,385.0,903.0,1.0,682.0,1,0.3445907161885994
1000,1000,-0.5318693116098681,-0.5,1,475.0,972.0,0.0,283.0,0,0.38837162334586806
1001,1001,-0.03182791277460573,-0.0,1,475.0,975.0,0.0,3550.0,0,0.09692866951355461
1002,1002,0.7557926203816909,0.8,0,453.0,716.0,1.0,241.0,0,0.3575946523073057
1003,1003,-0.7743042376072047,-0.8,1,276.0,604.0,0.0,160.0,0,0.4200685307998847
1004,1004,0.5881872948827889,0.6,0,410.0,880.0,1.0,480.0,0,0.09015057474238664
1005,1005,-0.539128781018948,-0.5,1,423.0,567.0,0.0,250.0,0,0.6451693546075239
1006,1006,-0.6704200394796365,-0.7,1,494.0,578.0,0.0,538.0,0,0.22556167246373837
1007,1007,0.817680516946754,0.8,0,328.0,500.0,1.0,232.0,0,0.3988049463079637
1008,1008,0.7522725332895477,0.8,0,498.0,982.0,1.0,180.0,0,0.9665878566718414
1009,1009,-0.4580393366156421,-0.5,1,259.0,605.0,0.0,376.0,0,0.29123500172758143
1010,1010,0.5653179116669391,0.6,0,354.0,593.0,1.0,433.0,0,0.3785184870417547
1011,1011,0.33532407476624604,0.3,1,490.0,953.0,1.0,547.0,1,0.3669814398850749
1012,1012,-0.12047753268146932,-0.1,1,400.0,894.0,0.0,3706.0,0,0.1299920262185812
1013,1013,0.7133202417045068,0.7,0,333.0,793.0,1.0,224.0,0,0.5542876761795895
1014,1014,0.7571145929572212,0.8,0,474.0,541.0,1.0,205.0,0,0.22508388384512978
1015,1015,-0.18661613407541422,-0.2,1,432.0,988.0,0.0,2580.0,0,0.21536108465964166
1016,1016,0.2336091900294286,0.2,1,302.0,506.0,1.0,982.0,1,0.35063352564211203
1017,1017,-0.05416999668471956,-0.1,1,415.0,741.0,0.0,3844.0,0,0.2327881471035902
1018,1018,-0.8663662746093221,-0.9,1,274.0,678.0,0.0,238.0,0,0.2920324022008226
1019,1019,0.157488459502249,0.2,1,304.0,791.0,1.0,1135.0,1,0.32397417907307513
1020,1020,-0.4897860885241798,-0.5,1,484.0,852.0,0.0,444.0,0,0.41917532951108094
1021,1021,-0.10397723311534057,-0.1,1,428.0,684.0,0.0,2868.0,0,0.29574597222768495
1022,1022,0.5132188115352094,0.5,0,395.0,756.0,1.0,179.0,0,0.7790167655350023
1023,1023,0.20902916466907806,0.2,1,383.0,980.0,1.0,547.0,1,0.5809182510166611
1024,1024,-0.09223291516084653,-0.1,1,299.0,574.0,0.0,2047.0,0,0.24316741849249257
1025,1025,-0.915035035957577,-0.9,1,484.0,829.0,0.0,157.0,0,0.9206123712108988
1026,1026,0.7120762777783669,0.7,0,292.0,862.0,1.0,426.0,0,0.022816523238977204
1027,1027,0.8456232841841669,0.8,0,334.0,968.0,1.0,258.0,0,0.28289504237216667
1028,1028,-0.03283819301997304,-0.0,1,312.0,800.0,0.0,3888.0,0,0.26230130291348186
1029,1029,-0.2503184738318438,-0.3,1,495.0,945.0,0.0,280.0,0,0.9417383519333992
1030,1030,-0.29523773922599994,-0.3,1,343.0,958.0,0.0,1229.0,0,0.4521960059052983
1031,1031,0.27431525558658976,0.3,1,289.0,959.0,1.0,222.0,1,0.9133541687745494
1032,1032,0.741839277608616,0.7,0,456.0,562.0,1.0,152.0,0,0.6936198273810422
1033,1033,0.5459492724431372,0.5,0,358.0,962.0,1.0,240.0,0,0.8285674670240568
1034,1034,0.6835811815940513,0.7,0,289.0,674.0,1.0,197.0,0,0.9163658569515613
1035,1035,-0.46243849153549355,-0.5,1,267.0,648.0,0.0,295.0,0,0.6444387513732942
1036,1036,0.665539878171794,0.7,0,481.0,568.0,1.0,241.0,0,0.48941910165455393
1037,1037,-0.8535734404359347,-0.9,1,469.0,696.0,0.0,495.0,0,0.09573412435259643
1038,1038,0.8870474963463884,0.9,0,375.0,720.0,1.0,65.0,0,0.3867243297838927
1039,1039,0.5044318071456504,0.5,0,433.0,795.0,1.0,252.0,0,0.8016411448198938
1040,1040,0.3968843952389034,0.4,1,435.0,696.0,1.0,329.0,1,0.42969138359162795
1041,1041,-0.8713169208469378,-0.9,1,389.0,577.0,0.0,344.0,0,0.003713464275403866
1042,1042,0.9639370619696208,1.0,0,493.0,577.0,1.0,360.0,0,0.32341507975637773
1043,1043,0.5359829996813559,0.5,0,253.0,851.0,1.0,236.0,0,0.2844952420591178
1044,1044,0.37469412072843045,0.4,1,464.0,586.0,1.0,1170.0,1,0.07734914854140917
1045,1045,-0.6977275930132054,-0.7,1,323.0,528.0,0.0,129.0,0,0.8851219194067841
1046,1046,-0.8514641606564186,-0.9,1,408.0,979.0,0.0,273.0,0,0.13083289703683842
1047,1047,-0.9304465017633581,-0.9,1,442.0,649.0,0.0,259.0,0,0.6573470487144337
1048,1048,0.2555664767162851,0.3,1,339.0,838.0,1.0,603.0,1,0.8200027851253945
1049,1049,0.8254618351689458,0.8,0,395.0,764.0,1.0,221.0,0,0.6952114845823654
1050,1050,-0.12793077340893677,-0.1,1,250.0,607.0,0.0,1793.0,0,0.7622612011253563
1051,1051,0.013402323806780636,0.0,1,257.0,542.0,1.0,4201.0,1,0.45527395437261264
1052,1052,-0.3451021116351374,-0.3,1,472.0,777.0,0.0,431.0,0,0.6998419985353928
1053,1053,-0.2233218665762995,-0.2,1,484.0,911.0,0.0,1055.0,0,0.42834618958409076
1054,1054,0.5876036063371839,0.6,0,281.0,717.0,1.0,272.0,0,0.6002256925999775
1055,1055,0.47139385729982997,0.5,1,431.0,892.0,1.0,187.0,1,0.9275426135689543
1056,1056,0.6027204723902291,0.6,0,258.0,506.0,1.0,126.0,0,0.4513484273159938
1057,1057,-0.6991265747054927,-0.7,1,495.0,821.0,0.0,234.0,0,0.5852222827040053
1058,1058,-0.7993824095068651,-0.8,1,359.0,886.0,0.0,175.0,0,0.5721528404758682
1059,1059,0.9696133712105464,1.0,0,404.0,569.0,1.0,277.0,0,0.5553398016605111
1060,1060,0.0037936099541608925,0.0,1,454.0,948.0,1.0,2218.0,1,0.5320940512038653
1061,1061,-0.4181770563333609,-0.4,1,345.0,769.0,0.0,716.0,0,0.18140614084928985
1062,1062,-0.01639546796051472,-0.0,1,486.0,727.0,1.0,3787.0,1,0.22382054707948185
1063,1063,0.5178206510261996,0.5,0,420.0,891.0,1.0,209.0,0,0.6153048443638645
1064,1064,-0.8809636579841631,-0.9,1,270.0,924.0,0.0,246.0,0,0.19909123696188424
1065,1065,0.9039935708404798,0.9,0,432.0,914.0,1.0,164.0,0,0.9058893756841402
1066,1066,-0.3216107638650585,-0.3,1,318.0,694.0,0.0,558.0,0,0.068212196601937
1067,1067,0.13728306202731666,0.1,1,493.0,594.0,1.0,1473.0,1,0.7267551686545897
1068,1068,0.44477814841807395,0.4,1,357.0,617.0,1.0,2286.0,1,0.007978231504474076
1069,1069,-0.15022473480313714,-0.2,1,261.0,768.0,0.0,801.0,0,0.8035181164539771
1070,1070,-0.46350338286901294,-0.5,1,406.0,958.0,0.0,436.0,0,0.5459614311555855
1071,1071,0.6102545244222581,0.6,0,322.0,909.0,1.0,859.0,0,0.053384213450312634
1072,1072,0.4228780344446874,0.4,1,288.0,509.0,1.0,833.0,1,0.011886036352765639
1073,1073,-0.501086304198864,-0.5,1,401.0,844.0,0.0,435.0,0,0.44978735365919253
1074,1074,-0.14654079558914557,-0.1,1,453.0,516.0,0.0,141.0,0,0.38880699055811485
1075,1075,-0.9940636610503688,-1.0,1,314.0,618.0,0.0,228.0,0,0.6259974781811972
1076,1076,-0.9961228710183414,-1.0,1,292.0,868.0,0.0,140.0,0,0.8325097994136765
1077,1077,-0.7561072792072219,-0.8,1,469.0,883.0,0.0,308.0,0,0.16665951656027944
1078,1078,-0.477593753921693,-0.5,1,331.0,512.0,0.0,497.0,0,0.2531655352562523
1079,1079,0.6182000893774264,0.6,0,318.0,935.0,1.0,277.0,0,0.19010069448767541
1080,1080,-0.574028457483819,-0.6,1,447.0,901.0,0.0,362.0,0,0.2725448969647106
1081,1081,0.13838328706109837,0.1,1,295.0,640.0,1.0,725.0,1,0.9415770889952252
1082,1082,0.9499410897556546,0.9,0,328.0,576.0,1.0,126.0,0,0.7598755967316262
1083,1083,-0.5114755313601844,-0.5,1,385.0,907.0,0.0,2778.0,0,0.01050101956660332
1084,1084,-0.49690025096915247,-0.5,1,305.0,837.0,0.0,318.0,0,0.4917154333013434
1085,1085,0.6548629900020742,0.7,0,462.0,883.0,1.0,215.0,0,0.43115843239124796
1086,1086,0.4813226647652995,0.5,1,325.0,862.0,1.0,333.0,1,0.617342031536055
1087,1087,0.9046426042801838,0.9,0,332.0,753.0,1.0,155.0,0,0.7917028228095097
1088,1088,0.7367741603228146,0.7,0,300.0,777.0,1.0,213.0,0,0.22640884305361741
1089,1089,-0.5616827369581165,-0.6,1,482.0,991.0,0.0,467.0,0,0.08807945554783603
1090,1090,-0.9314118272219862,-0.9,1,417.0,568.0,0.0,175.0,0,0.427942866667929
1091,1091,0.8513482543880899,0.9,0,283.0,943.0,1.0,254.0,0,0.9723826230829822
1092,1092,-0.18883900563487122,-0.2,1,338.0,631.0,0.0,131.0,0,0.6730120339684963
1093,1093,0.7560764791642414,0.8,0,262.0,785.0,1.0,363.0,0,0.2101332655859678
1094,1094,-0.01702900300007526,-0.0,1,366.0,570.0,0.0,3374.0,0,0.7301189984215749
1095,1095,-0.900178289658256,-0.9,1,390.0,533.0,0.0,167.0,0,0.9269883515573342
1096,1096,-0.9421587949990462,-0.9,1,284.0,617.0,0.0,249.0,0,0.3034721912479491
1097,1097,0.23861464088397222,0.2,1,403.0,537.0,1.0,570.0,1,0.6825387973245896
1098,1098,0.6359862581707614,0.6,0,316.0,530.0,1.0,224.0,0,0.6512931767119544
1099,1099,0.8855087481638984,0.9,0,286.0,771.0,1.0,173.0,0,0.08508020246605119
1100,1100,-0.1253477074449849,-0.1,1,376.0,807.0,0.0,607.0,0,0.5533999292377025
1101,1101,0.6508662553745646,0.7,0,343.0,579.0,1.0,238.0,0,0.28059118509157566
1102,1102,-0.8019947263881535,-0.8,1,468.0,565.0,0.0,207.0,0,0.6073297097806072
1103,1103,-0.70343691069636,-0.7,1,277.0,609.0,0.0,174.0,0,0.29885386653719415
1104,1104,-0.993395457401453,-1.0,1,399.0,563.0,0.0,188.0,0,0.28700522870816336
1105,1105,-0.2639124302857234,-0.3,1,272.0,509.0,0.0,679.0,0,0.8217693354763217
1106,1106,-0.881064342971225,-0.9,1,418.0,986.0,0.0,466.0,0,0.013635390653335078
1107,1107,-0.838136397489859,-0.8,1,335.0,950.0,0.0,265.0,0,0.047737053398577145
1108,1108,-0.312713315600625,-0.3,1,457.0,587.0,0.0,286.0,0,0.4926623579445617
1109,1109,0.9914309554466747,1.0,0,299.0,926.0,1.0,155.0,0,0.644422680976173
1110,1110,-0.0835089374031297,-0.1,1,346.0,884.0,0.0,3070.0,0,0.3500677966949636
1111,1111,0.8856794707642335,0.9,0,398.0,685.0,1.0,317.0,0,0.4321499133454889
1112,1112,0.5708815020602636,0.6,0,292.0,748.0,1.0,350.0,0,0.37087310716962796
1113,1113,0.4432800280562095,0.4,1,310.0,605.0,1.0,245.0,1,0.7638699825911885
1114,1114,0.22843891649858583,0.2,1,325.0,934.0,1.0,3741.0,1,0.17130582302582598
1115,1115,-0.5480130127445224,-0.5,1,452.0,500.0,0.0,468.0,0,0.33482629987387746
1116,1116,-0.325483433435537,-0.3,1,404.0,885.0,0.0,311.0,0,0.8687677321078228
1117,1117,0.37009705920119695,0.4,1,457.0,864.0,1.0,439.0,1,0.20772699720536325
1118,1118,0.48053091544436777,0.5,1,358.0,711.0,1.0,171.0,1,0.6875239164186796
1119,1119,-0.1400604206846945,-0.1,1,327.0,756.0,0.0,427.0,0,0.31406728377415294
1120,1120,0.18778794846341884,0.2,1,407.0,933.0,1.0,3660.0,1,0.09967428024586777
1121,1121,0.5743229438833488,0.6,0,461.0,584.0,1.0,645.0,0,0.16521832947362514
1122,1122,-0.8200048611639414,-0.8,1,396.0,973.0,0.0,211.0,0,0.5812771744789719
1123,1123,0.1006114474838502,0.1,1,460.0,921.0,1.0,709.0,1,0.9110131331181721
1124,1124,-0.07668622341578413,-0.1,1,451.0,703.0,0.0,2096.0,0,0.7760680123396647
1125,1125,-0.7666701942171601,-0.8,1,398.0,716.0,0.0,206.0,0,0.6747072745067422
1126,1126,0.34970001965725683,0.3,1,477.0,775.0,1.0,1028.0,1,0.15808736459879758
1127,1127,-0.3526220461908305,-0.4,1,315.0,588.0,0.0,2097.0,0,0.04366944507130399
1128,1128,-0.6256072750260901,-0.6,1,371.0,725.0,0.0,214.0,0,0.5940052649242432
1129,1129,-0.8415538879734277,-0.8,1,444.0,605.0,0.0,381.0,0,0.13230074231495503
1130,1130,0.0709559814104661,0.1,1,256.0,650.0,1.0,4094.0,1,0.04307983536251936
1131,1131,-0.5389405628495503,-0.5,1,286.0,705.0,0.0,279.0,0,0.5851512066393962
1132,1132,0.5911902058545861,0.6,0,423.0,598.0,1.0,259.0,0,0.8085423552779164
1133,1133,-0.4118084496678598,-0.4,1,313.0,818.0,0.0,229.0,0,0.7842877140338342
1134,1134,0.08656272139672527,0.1,1,343.0,698.0,1.0,3959.0,1,0.20305798532304453
1135,1135,0.2629008812735336,0.3,1,347.0,530.0,1.0,713.0,1,0.5693774846655211
1136,1136,-0.5547160652601142,-0.6,1,293.0,735.0,0.0,402.0,0,0.7139100979045108
1137,1137,0.011162163066861686,0.0,1,279.0,830.0,0.0,1021.0,0,0.9140838684767456
1138,1138,0.9916392078786893,1.0,0,455.0,888.0,1.0,317.0,0,0.024350516391851484
1139,1139,0.3068150079735672,0.3,1,314.0,929.0,1.0,347.0,1,0.5893258745265378
1140,1140,-0.023072567467242733,-0.0,1,321.0,627.0,0.0,2242.0,0,0.6342358333685699
1141,1141,0.07959269227064292,0.1,1,373.0,870.0,1.0,1407.0,1,0.38714056516974904
1142,1142,-0.2724838564287111,-0.3,1,415.0,989.0,0.0,1216.0,0,0.8649337085398261
1143,1143,-0.4799241434855017,-0.5,1,414.0,535.0,0.0,1641.0,0,0.06268263497640592
1144,1144,0.9674579472286238,1.0,0,393.0,887.0,1.0,130.0,0,0.8706147917408191
1145,1145,0.15195499574120364,0.2,1,264.0,546.0,1.0,4190.0,1,0.22868089173100103
1146,1146,-0.9975424299573399,-1.0,1,317.0,788.0,0.0,225.0,0,0.20721088655357267
1147,1147,0.47408743479727766,0.5,1,342.0,635.0,1.0,133.0,1,0.9762199571444029
1148,1148,0.2251723011732032,0.2,1,347.0,673.0,1.0,1720.0,1,0.29697359778803434
1149,1149,0.5281701168818547,0.5,0,462.0,675.0,1.0,223.0,0,0.9419693864134232
1150,1150,0.5539411063844186,0.6,0,274.0,808.0,1.0,128.0,0,0.8501377906632578
1151,1151,-0.2525281196295657,-0.3,1,325.0,780.0,0.0,785.0,0,0.9993941233758966
1152,1152,-0.26353390722152614,-0.3,1,326.0,784.0,0.0,350.0,0,0.561048424265291
1153,1153,0.6224111383064417,0.6,0,302.0,536.0,1.0,262.0,0,0.9115025776683413
1154,1154,0.6621940353862605,0.7,0,357.0,581.0,1.0,362.0,0,0.28809250897332217
1155,1155,-0.10314035058698745,-0.1,1,464.0,736.0,0.0,1780.0,0,0.39860187942019365
1156,1156,0.7398718536573607,0.7,0,259.0,643.0,1.0,228.0,0,0.4320568823650316
1157,1157,-0.8051223012726494,-0.8,1,426.0,811.0,0.0,273.0,0,0.08011816542885442
1158,1158,-0.5553276995106649,-0.6,1,336.0,759.0,0.0,655.0,0,0.3125641287023384
1159,1159,-0.5419171509493188,-0.5,1,313.0,914.0,0.0,113.0,0,0.6797176823244523
1160,1160,-0.5781635277456636,-0.6,1,338.0,675.0,0.0,637.0,0,0.16615912239389363
1161,1161,-0.6978371202337437,-0.7,1,418.0,894.0,0.0,478.0,0,0.32530806146261937
1162,1162,0.22421327517117073,0.2,1,343.0,680.0,1.0,1997.0,1,0.2531485589667357
1163,1163,-0.7182952810857808,-0.7,1,282.0,635.0,0.0,183.0,0,0.7310353842547891
1164,1164,0.21173128769605443,0.2,1,461.0,720.0,1.0,2229.0,1,0.23783735563088182
1165,1165,0.6785231360224193,0.7,0,355.0,823.0,1.0,242.0,0,0.9912276304377682
1166,1166,-0.4087876660059997,-0.4,1,272.0,731.0,0.0,767.0,0,0.15664768640395887
1167,1167,-0.04779858127229164,-0.0,1,271.0,822.0,0.0,3907.0,0,0.14817991196409863
1168,1168,-0.6432692556259823,-0.6,1,395.0,509.0,0.0,196.0,0,0.7366349536089226
1169,1169,-0.7495864791498292,-0.7,1,258.0,967.0,0.0,235.0,0,0.8018615035154
1170,1170,-0.5945659164245385,-0.6,1,473.0,972.0,0.0,185.0,0,0.5630881815340841
1171,1171,-0.7619407011956991,-0.8,1,460.0,828.0,0.0,142.0,0,0.9007268694707479
1172,1172,0.023129866140722655,0.0,1,470.0,622.0,0.0,3908.0,0,0.2971140225879585
1173,1173,0.9264665424726506,0.9,0,397.0,716.0,1.0,187.0,0,0.5104496372759848
1174,1174,-0.5106446394573552,-0.5,1,492.0,971.0,0.0,377.0,0,0.7162894296127154
1175,1175,-0.8505600063244056,-0.9,1,255.0,802.0,0.0,173.0,0,0.41738654597417313
1176,1176,0.5904527962186743,0.6,0,396.0,658.0,1.0,126.0,0,0.9595649494661899
1177,1177,0.26613786138151196,0.3,1,397.0,771.0,1.0,352.0,1,0.1300961235598017
1178,1178,-0.07368700064589406,-0.1,1,480.0,794.0,0.0,3726.0,0,0.4009638536772111
1179,1179,-0.8346077328152639,-0.8,1,400.0,930.0,0.0,250.0,0,0.8394125443153071
1180,1180,-0.6502640961650388,-0.7,1,419.0,817.0,0.0,804.0,0,0.0037582096726115344
1181,1181,-0.7962873872950262,-0.8,1,344.0,993.0,0.0,223.0,0,0.68483530391116
1182,1182,0.05769507592816758,0.1,1,431.0,907.0,1.0,2572.0,1,0.37703680064496703
1183,1183,0.9902637835085701,1.0,0,425.0,949.0,1.0,396.0,0,0.09028519892081399
1184,1184,-0.32212984604726125,-0.3,1,474.0,973.0,0.0,423.0,0,0.9783981418393655
1185,1185,0.6284508595706872,0.6,0,495.0,540.0,1.0,145.0,0,0.8046986760964092
1186,1186,-0.10357051278565588,-0.1,1,321.0,809.0,0.0,620.0,0,0.9873267846669462
1187,1187,0.5994810647506976,0.6,0,461.0,618.0,1.0,1231.0,0,0.08123223376789612
1188,1188,0.3806431713634666,0.4,1,289.0,695.0,1.0,706.0,1,0.534943259403026
1189,1189,-0.20855323862179098,-0.2,1,255.0,617.0,0.0,408.0,0,0.8169155906143838
1190,1190,0.5982335175010745,0.6,0,405.0,962.0,1.0,223.0,0,0.9348961638410537
1191,1191,0.07802024252090467,0.1,1,299.0,806.0,1.0,465.0,1,0.9133176382675927
1192,1192,-0.6031452533204631,-0.6,1,428.0,903.0,0.0,319.0,0,0.5665544287862742
1193,1193,0.35589428107438836,0.4,1,320.0,984.0,1.0,366.0,1,0.314960039360868
1194,1194,-0.053003621914292864,-0.1,1,254.0,735.0,0.0,761.0,0,0.887751699833173
1195,1195,-0.16482393938545314,-0.2,1,350.0,681.0,0.0,1579.0,0,0.7728109007904744
1196,1196,0.4870226869239249,0.5,1,382.0,975.0,1.0,393.0,1,0.7218963633524406
1197,1197,-0.39415402008347233,-0.4,1,379.0,560.0,0.0,241.0,0,0.8968908312850203
1198,1198,-0.05068086821986384,-0.1,1,382.0,561.0,0.0,1447.0,0,0.664040940560805
1199,1199,-0.6961751095471671,-0.7,1,265.0,888.0,0.0,227.0,0,0.5621553921455072
1200,1200,-0.36892683152524497,-0.4,1,350.0,694.0,0.0,566.0,0,0.062130654620704884
1201,1201,-0.7147518045689052,-0.7,1,253.0,774.0,0.0,233.0,0,0.45622693137499626
1202,1202,-0.34941376124374623,-0.3,1,289.0,640.0,0.0,211.0,0,0.9205376008094827
1203,1203,0.9614515727308193,1.0,0,364.0,928.0,1.0,188.0,0,0.7341565214211786
1204,1204,0.6372594837793288,0.6,0,351.0,992.0,1.0,267.0,0,0.22295695632881607
1205,1205,-0.6513770848260592,-0.7,1,497.0,906.0,0.0,247.0,0,0.5386410200331956
1206,1206,-0.7310379505463089,-0.7,1,456.0,790.0,0.0,184.0,0,0.1707246242960977
1207,1207,-0.9602803962328157,-1.0,1,436.0,734.0,0.0,120.0,0,0.7928816939428259
1208,1208,0.8179795476857015,0.8,0,296.0,858.0,1.0,206.0,0,0.8467259141715614
1209,1209,0.7711939631002378,0.8,0,371.0,966.0,1.0,493.0,0,0.11573210345151119
1210,1210,-0.7985719324592764,-0.8,1,493.0,914.0,0.0,133.0,0,0.9614521372831574
1211,1211,-0.18572946376612132,-0.2,1,334.0,608.0,1.0,4058.0,1,0.0810633860732578
1212,1212,-0.4509587594018243,-0.5,1,490.0,646.0,0.0,614.0,0,0.3630459044916591
1213,1213,0.6469670510654202,0.6,0,369.0,661.0,1.0,740.0,0,0.15565818671721499
1214,1214,-0.8507362921369233,-0.9,1,384.0,635.0,0.0,321.0,0,0.3266246326230253
1215,1215,0.3739372727871282,0.4,1,362.0,899.0,1.0,149.0,1,0.8729861305745842
1216,1216,-0.5776609467098259,-0.6,1,376.0,536.0,0.0,168.0,0,0.351799631665361
1217,1217,-0.3113148463968818,-0.3,1,477.0,961.0,0.0,432.0,0,0.6848813107371841
1218,1218,0.7545283760506889,0.8,0,336.0,544.0,1.0,140.0,0,0.9919773645997235
1219,1219,0.14571526728747353,0.1,1,455.0,685.0,1.0,3860.0,1,0.1966097426659188
1220,1220,0.8824607767327808,0.9,0,323.0,605.0,1.0,192.0,0,0.899705226755438
1221,1221,0.03903604298627905,0.0,1,357.0,640.0,1.0,4003.0,1,0.03868068736131314
1222,1222,0.5208402071409053,0.5,0,485.0,555.0,1.0,340.0,0,0.21246754257359246
1223,1223,0.6760465002033407,0.7,0,383.0,936.0,1.0,341.0,0,0.1886272361347452
1224,1224,0.32398064405908866,0.3,1,354.0,767.0,1.0,1499.0,1,0.25420607287759145
1225,1225,0.11950220314952853,0.1,1,354.0,610.0,0.0,4036.0,0,0.18392736475962113
1226,1226,-0.20689149194164047,-0.2,1,469.0,563.0,0.0,3968.0,0,0.19893283701173037
1227,1227,0.5750984646201618,0.6,0,311.0,830.0,1.0,379.0,0,0.3977714918537001
1228,1228,0.43592351712739497,0.4,1,417.0,604.0,1.0,299.0,1,0.7927959275194539
1229,1229,0.5052739814064762,0.5,0,361.0,552.0,1.0,777.0,0,0.28056605552230507
1230,1230,0.30736524439051127,0.3,1,366.0,928.0,1.0,876.0,1,0.374767563111962
1231,1231,0.21557145977882475,0.2,1,493.0,744.0,1.0,1853.0,1,0.12434452515479166
1232,1232,-0.7388643183178352,-0.7,1,460.0,909.0,0.0,271.0,0,0.16124004112468404
1233,1233,-0.955722435660169,-1.0,1,331.0,586.0,0.0,183.0,0,0.4895558413277973
1234,1234,0.2673935261424305,0.3,1,276.0,725.0,1.0,369.0,1,0.9769352128925038
1235,1235,-0.7755214370305958,-0.8,1,493.0,699.0,0.0,238.0,0,0.7798312819282921
1236,1236,0.3937542012742259,0.4,1,459.0,918.0,1.0,303.0,1,0.7949060425846889
1237,1237,0.7354086763359671,0.7,0,413.0,776.0,1.0,301.0,0,0.22725520684263556
1238,1238,0.6206949477303636,0.6,0,464.0,928.0,1.0,288.0,0,0.88712598753992
1239,1239,0.699786711857564,0.7,0,455.0,926.0,1.0,179.0,0,0.9824720378707938
1240,1240,0.8667859190430378,0.9,0,447.0,595.0,1.0,468.0,0,0.1563014267834434
1241,1241,-0.3743399363641988,-0.4,1,320.0,770.0,0.0,210.0,0,0.42112176210731034
1242,1242,0.23278310333409302,0.2,1,395.0,564.0,1.0,271.0,1,0.9641291881289957
1243,1243,0.715620325759063,0.7,0,441.0,553.0,1.0,256.0,0,0.30221414101948063
1244,1244,0.6042014173610333,0.6,0,457.0,664.0,1.0,379.0,0,0.8940700344816263
1245,1245,0.7883681303626495,0.8,0,494.0,731.0,1.0,255.0,0,0.2341608999910978
1246,1246,-0.34279839668568735,-0.3,1,444.0,582.0,0.0,1074.0,0,0.3818691576047074
1247,1247,-0.3623265011044834,-0.4,1,447.0,952.0,0.0,181.0,0,0.6621323511909937
1248,1248,0.379174007097421,0.4,1,359.0,887.0,1.0,3754.0,1,0.0327101426499975
1249,1249,0.6782351339809047,0.7,0,406.0,525.0,1.0,359.0,0,0.6233966593682779
1250,1250,0.12703783196147156,0.1,1,443.0,765.0,1.0,1082.0,1,0.9731110505715661
1251,1251,0.4536496263677945,0.5,1,261.0,910.0,1.0,189.0,1,0.4293981453656359
1252,1252,-0.0829350422147268,-0.1,1,295.0,591.0,0.0,4114.0,0,0.025838958281234947
1253,1253,-0.5403434835892866,-0.5,1,320.0,531.0,0.0,309.0,0,0.6581295246844386
1254,1254,0.3406703126180721,0.3,1,295.0,718.0,1.0,557.0,1,0.09155469941094818
1255,1255,-0.8254128172994228,-0.8,1,379.0,625.0,0.0,176.0,0,0.9642046301523043
1256,1256,-0.9366907800033895,-0.9,1,348.0,629.0,0.0,193.0,0,0.6776179221650472
1257,1257,0.1434873904638263,0.1,1,392.0,867.0,1.0,711.0,1,0.691584676071598
1258,1258,0.7242813050037253,0.7,0,343.0,699.0,1.0,298.0,0,0.3507280753516242
1259,1259,-0.1736847406909927,-0.2,1,471.0,831.0,0.0,1078.0,0,0.37127259133191526
1260,1260,0.763623395321436,0.8,0,393.0,902.0,1.0,205.0,0,0.3378929435741892
1261,1261,-0.5986587170858104,-0.6,1,389.0,837.0,0.0,304.0,0,0.15338890802144922
1262,1262,0.023019608541404946,0.0,1,460.0,734.0,1.0,2556.0,1,0.743581796607547
1263,1263,-0.3068799114432976,-0.3,1,254.0,584.0,0.0,362.0,0,0.837000091244489
1264,1264,0.7224363010422965,0.7,0,413.0,864.0,1.0,333.0,0,0.07087145346696455
1265,1265,-0.362834497785236,-0.4,1,474.0,816.0,0.0,200.0,0,0.4137657531981538
1266,1266,-0.35969013778320713,-0.4,1,286.0,829.0,0.0,955.0,0,0.07579564876498435
1267,1267,-0.8522374378398976,-0.9,1,364.0,949.0,0.0,187.0,0,0.13666133848612871
1268,1268,0.5947615445132626,0.6,0,380.0,639.0,1.0,421.0,0,0.4564790080249087
1269,1269,0.4554880417181777,0.5,1,425.0,518.0,1.0,717.0,1,0.29847423964357034
1270,1270,-0.13268355240857432,-0.1,1,488.0,826.0,0.0,1556.0,0,0.6773174740671113
1271,1271,0.6388210446177687,0.6,0,428.0,503.0,1.0,449.0,0,0.04617425725675639
1272,1272,-0.3691840238188375,-0.4,1,368.0,790.0,0.0,182.0,0,0.7113178776911245
1273,1273,0.9221437830779202,0.9,0,276.0,714.0,1.0,210.0,0,0.40277278142269546
1274,1274,0.7810153282638126,0.8,0,489.0,944.0,1.0,137.0,0,0.8878960760628817
1275,1275,-0.8631610457796859,-0.9,1,255.0,528.0,0.0,377.0,0,0.12448896390756037
1276,1276,-0.06859817872914165,-0.1,1,486.0,794.0,1.0,2420.0,1,0.6285924674245592
1277,1277,0.8917953447000666,0.9,0,361.0,902.0,1.0,77.0,0,0.4054008843770964
1278,1278,-0.8103826153654967,-0.8,1,348.0,995.0,0.0,337.0,0,0.5398187393558584
1279,1279,0.23963351340343486,0.2,1,286.0,941.0,1.0,2223.0,1,0.08631661652633837
1280,1280,0.95222148887109,1.0,0,426.0,750.0,1.0,174.0,0,0.27575385122032636
