,trial,coherence,coherence_bin,correct_side,target_onset,checker_onset,decision,decision_time,correct_decision
0,0,-0.3015634866583663,-0.3,False,301.0,988.0,0.0,861.0,1
1,1,-0.9741525171236167,-1.0,False,495.0,850.0,0.0,285.0,1
2,2,0.5925770530800898,0.6,True,429.0,646.0,1.0,245.0,1
3,3,0.8214057712145721,0.8,True,272.0,855.0,1.0,133.0,1
4,4,-0.04586556718449186,-0.0,False,479.0,571.0,1.0,3950.0,0
5,5,0.6590955528181779,0.7,True,491.0,684.0,1.0,145.0,1
6,6,-0.17293445192606316,-0.2,False,352.0,675.0,0.0,2983.0,1
7,7,0.29460374637774955,0.3,True,391.0,507.0,1.0,592.0,1
8,8,0.4385998927645971,0.4,True,257.0,562.0,1.0,201.0,1
9,9,-0.6117731368419435,-0.6,False,352.0,804.0,0.0,264.0,1
10,10,0.9548139035665884,1.0,True,339.0,716.0,1.0,195.0,1
11,11,0.48811229554546376,0.5,True,435.0,813.0,1.0,252.0,1
12,12,0.5766414681656846,0.6,True,321.0,843.0,1.0,246.0,1
13,13,0.08287002356520468,0.1,True,379.0,630.0,1.0,3991.0,1
14,14,0.797480799372307,0.8,True,350.0,653.0,1.0,197.0,1
15,15,0.10773979389321164,0.1,True,431.0,675.0,1.0,3894.0,1
16,16,0.9338182887726858,0.9,True,336.0,687.0,1.0,177.0,1
17,17,-0.6297589670279615,-0.6,False,270.0,985.0,0.0,155.0,1
18,18,-0.9334098330847547,-0.9,False,335.0,559.0,0.0,156.0,1
19,19,-0.7708655093491876,-0.8,False,273.0,725.0,0.0,162.0,1
20,20,-0.12403567766088752,-0.1,False,284.0,550.0,0.0,4166.0,1
21,21,0.42577191990331653,0.4,True,442.0,929.0,1.0,239.0,1
22,22,-0.11337313238037128,-0.1,False,425.0,573.0,0.0,4002.0,1
23,23,-0.9036360013317148,-0.9,False,408.0,936.0,0.0,166.0,1
24,24,0.3520941583835471,0.4,True,447.0,764.0,1.0,299.0,1
25,25,0.40967989121560233,0.4,True,320.0,818.0,1.0,212.0,1
26,26,0.18838193753991828,0.2,True,320.0,564.0,1.0,1576.0,1
27,27,-0.9162991904296747,-0.9,False,263.0,804.0,0.0,163.0,1
28,28,0.7522978195469816,0.8,True,387.0,813.0,1.0,120.0,1
29,29,0.28427476248208605,0.3,True,380.0,867.0,1.0,903.0,1
30,30,0.3321407324940564,0.3,True,274.0,927.0,1.0,409.0,1
31,31,-0.9967746015109062,-1.0,False,288.0,712.0,0.0,150.0,1
32,32,-0.3274625479056825,-0.3,False,470.0,737.0,0.0,203.0,1
33,33,0.22161035390383144,0.2,True,345.0,741.0,1.0,824.0,1
34,34,-0.5956243173599036,-0.6,False,259.0,966.0,0.0,335.0,1
35,35,-0.7315159055211025,-0.7,False,492.0,813.0,0.0,155.0,1
36,36,0.43652206905485014,0.4,True,293.0,545.0,1.0,362.0,1
37,37,-0.3797545911528897,-0.4,False,283.0,970.0,0.0,377.0,1
38,38,-0.643986088560984,-0.6,False,390.0,599.0,0.0,371.0,1
39,39,0.47676826189752,0.5,True,418.0,797.0,1.0,185.0,1
40,40,0.7648210995431084,0.8,True,399.0,946.0,1.0,145.0,1
41,41,0.496306815811695,0.5,True,304.0,715.0,1.0,261.0,1
42,42,-0.2606074281235824,-0.3,False,394.0,652.0,0.0,1464.0,1
43,43,-0.06291169583505662,-0.1,False,327.0,562.0,0.0,4111.0,1
44,44,0.9277865317723522,0.9,True,487.0,711.0,1.0,92.0,1
45,45,0.31164401700188615,0.3,True,469.0,771.0,1.0,610.0,1
46,46,0.10539052686872208,0.1,True,420.0,758.0,1.0,1932.0,1
47,47,-0.9730102328145764,-1.0,False,431.0,603.0,0.0,176.0,1
48,48,0.2062787048493544,0.2,True,389.0,774.0,1.0,3837.0,1
49,49,-0.20072134741487058,-0.2,False,334.0,868.0,0.0,1178.0,1
50,50,-0.45704643386379096,-0.5,False,336.0,807.0,0.0,317.0,1
51,51,0.5040521034856527,0.5,True,371.0,721.0,1.0,388.0,1
52,52,0.00851180072265234,0.0,True,378.0,865.0,0.0,3757.0,0
53,53,0.9014160035360936,0.9,True,386.0,600.0,1.0,194.0,1
54,54,-0.464283735525852,-0.5,False,296.0,854.0,0.0,470.0,1
55,55,0.08191050909331365,0.1,True,389.0,966.0,1.0,3645.0,1
56,56,0.9171115078191914,0.9,True,294.0,609.0,1.0,97.0,1
57,57,0.25263087726992284,0.3,True,490.0,598.0,1.0,702.0,1
58,58,0.3832761766510919,0.4,True,295.0,503.0,1.0,302.0,1
59,59,-0.7472520159728255,-0.7,False,360.0,649.0,0.0,191.0,1
60,60,-0.9658910612428087,-1.0,False,339.0,767.0,0.0,164.0,1
61,61,0.495768456518314,0.5,True,483.0,874.0,1.0,393.0,1
62,62,0.9085800380823026,0.9,True,390.0,943.0,1.0,227.0,1
63,63,-0.5135438022759271,-0.5,False,329.0,992.0,0.0,239.0,1
64,64,-0.7172376552881772,-0.7,False,448.0,945.0,0.0,277.0,1
65,65,0.7073248664472807,0.7,True,458.0,633.0,1.0,169.0,1
66,66,-0.5100960456589729,-0.5,False,422.0,606.0,0.0,382.0,1
67,67,-0.5883017193847986,-0.6,False,344.0,974.0,0.0,242.0,1
68,68,0.8787521933865092,0.9,True,429.0,985.0,1.0,106.0,1
69,69,0.036021328995260005,0.0,True,352.0,775.0,0.0,3873.0,0
70,70,0.21166546906018135,0.2,True,339.0,745.0,1.0,1256.0,1
71,71,-0.8958223597352837,-0.9,False,434.0,773.0,0.0,243.0,1
72,72,0.544670774963655,0.5,True,420.0,703.0,1.0,217.0,1
73,73,-0.06491973905676263,-0.1,False,336.0,849.0,0.0,3815.0,1
74,74,0.7568076729932398,0.8,True,332.0,709.0,1.0,269.0,1
75,75,-0.5728470576594471,-0.6,False,486.0,672.0,0.0,252.0,1
76,76,-0.5000147770533658,-0.5,False,269.0,692.0,0.0,469.0,1
77,77,0.792803110777303,0.8,True,424.0,583.0,1.0,173.0,1
78,78,0.17351573776230866,0.2,True,399.0,938.0,1.0,3663.0,1
79,79,0.007436339723920993,0.0,True,376.0,806.0,0.0,3818.0,0
80,80,-0.9709822732302531,-1.0,False,370.0,716.0,0.0,144.0,1
81,81,0.9640058010211194,1.0,True,348.0,588.0,1.0,84.0,1
82,82,-0.3752597308089065,-0.4,False,300.0,531.0,0.0,529.0,1
83,83,-0.2580016895884274,-0.3,False,477.0,883.0,0.0,860.0,1
84,84,-0.4804846048141931,-0.5,False,334.0,791.0,0.0,435.0,1
85,85,-0.9334084287929343,-0.9,False,278.0,766.0,0.0,176.0,1
86,86,-0.02693015211691674,-0.0,False,405.0,902.0,0.0,3693.0,1
87,87,0.10966942946944269,0.1,True,269.0,683.0,1.0,3138.0,1
88,88,0.2522114119938761,0.3,True,267.0,972.0,1.0,1371.0,1
89,89,-0.1336538346360292,-0.1,False,436.0,653.0,0.0,561.0,1
90,90,-0.5829647301787819,-0.6,False,422.0,800.0,0.0,228.0,1
91,91,0.6513376983453052,0.7,True,432.0,764.0,1.0,134.0,1
92,92,-0.5836605328896916,-0.6,False,414.0,666.0,0.0,320.0,1
93,93,0.8214066454497646,0.8,True,460.0,936.0,1.0,164.0,1
94,94,0.8426676911806044,0.8,True,423.0,968.0,1.0,169.0,1
95,95,0.4313883918957606,0.4,True,429.0,687.0,1.0,274.0,1
96,96,0.23885449936751213,0.2,True,339.0,549.0,1.0,332.0,1
97,97,-0.4531768707737871,-0.5,False,374.0,667.0,0.0,339.0,1
98,98,0.2765037654453004,0.3,True,498.0,519.0,1.0,1213.0,1
99,99,-0.2444514345525306,-0.2,False,472.0,522.0,0.0,2856.0,1
100,100,0.5778141856034555,0.6,True,442.0,831.0,1.0,217.0,1
101,101,-0.09426389215934017,-0.1,False,348.0,993.0,0.0,3659.0,1
102,102,0.5217083553667121,0.5,True,355.0,943.0,1.0,392.0,1
103,103,-0.2950228240620685,-0.3,False,370.0,686.0,0.0,624.0,1
104,104,0.8962288959797458,0.9,True,300.0,566.0,1.0,114.0,1
105,105,0.9194376233253352,0.9,True,342.0,950.0,1.0,168.0,1
106,106,-0.24976679694133974,-0.2,False,442.0,662.0,0.0,846.0,1
107,107,-0.8445852306718309,-0.8,False,282.0,774.0,0.0,224.0,1
108,108,0.3672742861486682,0.4,True,359.0,750.0,1.0,391.0,1
109,109,-0.5508581755797501,-0.6,False,390.0,898.0,0.0,242.0,1
110,110,-0.27340353751265556,-0.3,False,461.0,712.0,0.0,1007.0,1
111,111,0.3764666461674884,0.4,True,299.0,613.0,1.0,978.0,1
112,112,-0.04078550247874091,-0.0,False,279.0,852.0,0.0,3869.0,1
113,113,-0.6352988853385384,-0.6,False,407.0,764.0,0.0,359.0,1
114,114,-0.6915187273021464,-0.7,False,498.0,734.0,0.0,318.0,1
115,115,-0.2829897901030145,-0.3,False,441.0,725.0,0.0,354.0,1
116,116,0.06955429235887367,0.1,True,306.0,589.0,1.0,4105.0,1
117,117,-0.6597587064809318,-0.7,False,485.0,915.0,0.0,290.0,1
118,118,-0.06301756745089082,-0.1,False,345.0,711.0,0.0,3944.0,1
119,119,-0.7255172761660165,-0.7,False,487.0,771.0,0.0,242.0,1
120,120,-0.8514631107568442,-0.9,False,465.0,942.0,0.0,193.0,1
121,121,0.5327688162038904,0.5,True,435.0,890.0,1.0,375.0,1
122,122,-0.7932889162298242,-0.8,False,310.0,834.0,0.0,196.0,1
123,123,0.912814433223091,0.9,True,312.0,881.0,1.0,187.0,1
124,124,0.8014228421369731,0.8,True,434.0,999.0,1.0,197.0,1
125,125,0.7012330105436697,0.7,True,313.0,832.0,1.0,195.0,1
126,126,0.5358268824252022,0.5,True,411.0,999.0,1.0,240.0,1
127,127,-0.021115708218865548,-0.0,False,480.0,545.0,0.0,3975.0,1
128,128,-0.322479996330411,-0.3,False,412.0,563.0,0.0,525.0,1
129,129,0.2803365801672557,0.3,True,265.0,740.0,1.0,1055.0,1
130,130,0.9240516609629881,0.9,True,345.0,903.0,1.0,132.0,1
131,131,-0.5532003236962351,-0.6,False,343.0,733.0,0.0,194.0,1
132,132,0.9059176075811124,0.9,True,422.0,751.0,1.0,127.0,1
133,133,-0.10424369797815025,-0.1,False,264.0,653.0,0.0,4083.0,1
134,134,-0.18484032154812224,-0.2,False,380.0,670.0,0.0,3950.0,1
135,135,-0.5868817363342111,-0.6,False,363.0,621.0,0.0,386.0,1
136,136,-0.26445681349321437,-0.3,False,286.0,632.0,0.0,1382.0,1
137,137,0.07475663695312651,0.1,True,411.0,568.0,1.0,4021.0,1
138,138,0.8576592647099577,0.9,True,467.0,906.0,1.0,137.0,1
139,139,0.10561682805838313,0.1,True,428.0,700.0,1.0,3872.0,1
140,140,0.7295417295027111,0.7,True,327.0,839.0,1.0,114.0,1
141,141,0.2790399801956811,0.3,True,496.0,604.0,1.0,690.0,1
142,142,0.8461264991380608,0.8,True,298.0,681.0,1.0,161.0,1
143,143,-0.63953948898985,-0.6,False,465.0,927.0,0.0,298.0,1
144,144,0.17665589094592726,0.2,True,467.0,814.0,1.0,2189.0,1
145,145,-0.0003348962268063804,-0.0,False,295.0,952.0,1.0,3753.0,0
146,146,0.15572512232113622,0.2,True,301.0,712.0,1.0,2037.0,1
147,147,-0.7277891417704927,-0.7,False,440.0,842.0,0.0,168.0,1
148,148,-0.8921339853018031,-0.9,False,264.0,843.0,0.0,193.0,1
149,149,0.4740975946841639,0.5,True,459.0,982.0,1.0,409.0,1
150,150,0.21762836772187355,0.2,True,448.0,617.0,1.0,385.0,1
151,151,-0.5571060968701971,-0.6,False,486.0,663.0,0.0,191.0,1
152,152,0.7359034136770495,0.7,True,344.0,687.0,1.0,89.0,1
153,153,0.5380693470944815,0.5,True,497.0,823.0,1.0,220.0,1
154,154,-0.5290277030063217,-0.5,False,467.0,805.0,0.0,158.0,1
155,155,-0.11845673547743396,-0.1,False,443.0,860.0,0.0,2997.0,1
156,156,0.5262115723716096,0.5,True,282.0,747.0,1.0,301.0,1
157,157,0.42919284523950263,0.4,True,418.0,605.0,1.0,777.0,1
158,158,-0.05436018546232946,-0.1,False,436.0,543.0,0.0,4021.0,1
159,159,-0.19650538939689066,-0.2,False,452.0,872.0,0.0,936.0,1
160,160,-0.1191373527000057,-0.1,False,479.0,569.0,0.0,3862.0,1
161,161,-0.38247993281406356,-0.4,False,485.0,582.0,0.0,273.0,1
162,162,-0.3650554310186609,-0.4,False,459.0,877.0,0.0,394.0,1
163,163,-0.22321324791461516,-0.2,False,327.0,653.0,0.0,2380.0,1
164,164,0.4282696157950767,0.4,True,444.0,536.0,1.0,400.0,1
165,165,-0.09073534871117195,-0.1,False,416.0,915.0,0.0,3669.0,1
166,166,-0.15254936223919935,-0.2,False,296.0,717.0,0.0,3987.0,1
167,167,0.3857294364062531,0.4,True,388.0,989.0,1.0,113.0,1
168,168,-0.6144448774181195,-0.6,False,350.0,660.0,0.0,300.0,1
169,169,0.9133769337217639,0.9,True,465.0,811.0,1.0,154.0,1
170,170,0.7169271229480954,0.7,True,484.0,578.0,1.0,258.0,1
171,171,0.7708259365354573,0.8,True,487.0,728.0,1.0,175.0,1
172,172,0.3648841555712927,0.4,True,360.0,839.0,1.0,331.0,1
173,173,0.3779000400216115,0.4,True,391.0,635.0,1.0,434.0,1
174,174,0.06582707368115193,0.1,True,302.0,691.0,1.0,4007.0,1
175,175,0.6255583472855168,0.6,True,328.0,818.0,1.0,234.0,1
176,176,-0.026796594088803083,-0.0,False,456.0,590.0,1.0,3954.0,0
177,177,-0.11148093339920018,-0.1,False,250.0,902.0,0.0,648.0,1
178,178,0.2767042586928259,0.3,True,331.0,673.0,1.0,1116.0,1
179,179,0.46825246093601103,0.5,True,375.0,596.0,1.0,329.0,1
180,180,0.2948759485734578,0.3,True,464.0,950.0,1.0,1046.0,1
181,181,-0.8842186883608223,-0.9,False,287.0,858.0,0.0,265.0,1
182,182,-0.8581595854612292,-0.9,False,470.0,743.0,0.0,177.0,1
183,183,-0.02668389543680827,-0.0,False,411.0,525.0,0.0,4064.0,1
184,184,0.30984147163631603,0.3,True,339.0,850.0,1.0,431.0,1
185,185,0.12333016321407198,0.1,True,365.0,874.0,1.0,3761.0,1
186,186,0.7147892977837083,0.7,True,466.0,529.0,1.0,115.0,1
187,187,-0.1684614545836678,-0.2,False,372.0,767.0,0.0,861.0,1
188,188,-0.8227206170225132,-0.8,False,328.0,710.0,0.0,102.0,1
189,189,-0.2662749536358242,-0.3,False,315.0,520.0,0.0,1505.0,1
190,190,-0.0226837940261424,-0.0,False,467.0,953.0,1.0,3580.0,0
191,191,0.9713536043688922,1.0,True,393.0,550.0,1.0,127.0,1
192,192,-0.6492183421224687,-0.6,False,332.0,527.0,0.0,181.0,1
193,193,0.4262363178981112,0.4,True,300.0,608.0,1.0,332.0,1
194,194,0.9671209946134347,1.0,True,285.0,743.0,1.0,112.0,1
195,195,0.06774872221813832,0.1,True,319.0,596.0,1.0,4085.0,1
196,196,0.9819016298859375,1.0,True,405.0,979.0,1.0,76.0,1
197,197,0.7723866834031146,0.8,True,404.0,954.0,1.0,162.0,1
198,198,0.056456567777986244,0.1,True,485.0,575.0,1.0,3940.0,1
199,199,-0.6841845540738469,-0.7,False,293.0,801.0,0.0,306.0,1
200,200,-0.4942063545466635,-0.5,False,381.0,561.0,0.0,478.0,1
201,201,-0.5037575032789428,-0.5,False,306.0,938.0,0.0,526.0,1
202,202,0.21334931515910882,0.2,True,416.0,694.0,1.0,1680.0,1
203,203,0.8807712952554412,0.9,True,465.0,595.0,1.0,140.0,1
204,204,-0.4899711163397973,-0.5,False,299.0,744.0,0.0,287.0,1
205,205,-0.9817421892989038,-1.0,False,435.0,773.0,0.0,72.0,1
206,206,0.28435693281252994,0.3,True,275.0,543.0,1.0,582.0,1
207,207,-0.21752100712634714,-0.2,False,403.0,555.0,0.0,1212.0,1
208,208,-0.25239449324675967,-0.3,False,474.0,804.0,0.0,922.0,1
209,209,0.14348385848066636,0.1,True,295.0,815.0,1.0,1950.0,1
210,210,-0.308747151654704,-0.3,False,456.0,591.0,0.0,833.0,1
211,211,0.2989729290291132,0.3,True,278.0,900.0,1.0,822.0,1
212,212,-0.46019581799541065,-0.5,False,367.0,644.0,0.0,459.0,1
213,213,-0.4942793949363271,-0.5,False,306.0,668.0,0.0,406.0,1
214,214,0.21591337336830874,0.2,True,464.0,766.0,1.0,700.0,1
215,215,-0.7568164128786257,-0.8,False,326.0,848.0,0.0,216.0,1
216,216,-0.488008573003613,-0.5,False,317.0,923.0,0.0,300.0,1
217,217,-0.6522798581943212,-0.7,False,437.0,553.0,0.0,190.0,1
218,218,-0.4181764518665292,-0.4,False,339.0,766.0,0.0,405.0,1
219,219,0.06802410560224503,0.1,True,280.0,989.0,1.0,3731.0,1
220,220,-0.3572200405236141,-0.4,False,447.0,989.0,0.0,614.0,1
221,221,-0.41408248632264644,-0.4,False,271.0,924.0,0.0,845.0,1
222,222,-0.14317203342694662,-0.1,False,470.0,803.0,0.0,3727.0,1
223,223,-0.3586375734448686,-0.4,False,490.0,861.0,0.0,389.0,1
224,224,-0.6118008765826557,-0.6,False,351.0,876.0,0.0,183.0,1
225,225,0.45842388798996647,0.5,True,474.0,736.0,1.0,370.0,1
226,226,0.1527817224501229,0.2,True,452.0,811.0,1.0,3737.0,1
227,227,0.5329410790360656,0.5,True,483.0,785.0,1.0,142.0,1
228,228,0.24703382166597376,0.2,True,315.0,976.0,1.0,359.0,1
229,229,-0.9255231710444429,-0.9,False,303.0,852.0,0.0,135.0,1
230,230,0.7385771320522896,0.7,True,471.0,669.0,1.0,200.0,1
231,231,-0.7921822915810064,-0.8,False,318.0,651.0,0.0,231.0,1
232,232,0.614437576176529,0.6,True,454.0,812.0,1.0,154.0,1
233,233,0.9075663973684387,0.9,True,442.0,688.0,1.0,180.0,1
234,234,-0.847596865402471,-0.8,False,322.0,932.0,0.0,146.0,1
235,235,-0.11017140629799682,-0.1,False,285.0,970.0,0.0,3745.0,1
236,236,-0.8461050247837478,-0.8,False,295.0,695.0,0.0,160.0,1
237,237,0.2915409834033462,0.3,True,434.0,904.0,1.0,2812.0,1
238,238,0.327678558680516,0.3,True,375.0,776.0,1.0,1039.0,1
239,239,-0.9080596965630314,-0.9,False,385.0,983.0,0.0,142.0,1
240,240,0.5492759291309273,0.5,True,409.0,877.0,1.0,84.0,1
241,241,-0.3315307862776411,-0.3,False,329.0,798.0,0.0,403.0,1
242,242,-0.7732287029359683,-0.8,False,377.0,974.0,0.0,279.0,1
243,243,-0.65955390888579,-0.7,False,352.0,518.0,0.0,280.0,1
244,244,-0.9221328222517835,-0.9,False,474.0,693.0,0.0,113.0,1
245,245,-0.9611449251370245,-1.0,False,256.0,500.0,0.0,154.0,1
246,246,-0.6125139005928724,-0.6,False,419.0,615.0,0.0,176.0,1
247,247,0.4177729267617669,0.4,True,461.0,738.0,1.0,511.0,1
248,248,-0.3665484122200844,-0.4,False,287.0,505.0,0.0,788.0,1
249,249,-0.9149105453689386,-0.9,False,462.0,798.0,0.0,90.0,1
250,250,0.3817626593650181,0.4,True,482.0,573.0,1.0,365.0,1
251,251,0.2678077433078405,0.3,True,384.0,790.0,1.0,546.0,1
252,252,-0.9145127947330018,-0.9,False,291.0,905.0,0.0,184.0,1
253,253,0.5185869802985565,0.5,True,322.0,856.0,1.0,472.0,1
254,254,-0.6132095780595925,-0.6,False,407.0,667.0,0.0,276.0,1
255,255,-0.5123843216002686,-0.5,False,486.0,859.0,0.0,335.0,1
256,256,0.6603861515699281,0.7,True,305.0,756.0,1.0,249.0,1
257,257,-0.3862131859922522,-0.4,False,270.0,612.0,0.0,588.0,1
258,258,0.9709672137577214,1.0,True,439.0,569.0,1.0,72.0,1
259,259,-0.22971784997828393,-0.2,False,362.0,586.0,0.0,922.0,1
260,260,-0.6113397318607492,-0.6,False,316.0,738.0,0.0,166.0,1
261,261,0.8975614421971003,0.9,True,326.0,902.0,1.0,162.0,1
262,262,0.3244476119363644,0.3,True,433.0,853.0,1.0,334.0,1
263,263,-0.47740426850440376,-0.5,False,282.0,586.0,0.0,302.0,1
264,264,0.5839182270566223,0.6,True,393.0,524.0,1.0,243.0,1
265,265,0.5348762020303839,0.5,True,457.0,918.0,1.0,245.0,1
266,266,0.7488199997194649,0.7,True,478.0,789.0,1.0,183.0,1
267,267,0.30773239944210684,0.3,True,423.0,927.0,1.0,390.0,1
268,268,0.0040667235418296865,0.0,True,407.0,568.0,0.0,4025.0,0
269,269,0.7689194452381893,0.8,True,436.0,588.0,1.0,136.0,1
270,270,0.8196630133677885,0.8,True,253.0,753.0,1.0,84.0,1
271,271,0.2445686290510618,0.2,True,464.0,611.0,1.0,585.0,1
272,272,0.4229385365940246,0.4,True,384.0,995.0,1.0,511.0,1
273,273,0.747419003139995,0.7,True,481.0,634.0,1.0,195.0,1
274,274,-0.2776980492027734,-0.3,False,423.0,706.0,0.0,531.0,1
275,275,0.24790174357046246,0.2,True,352.0,999.0,1.0,1129.0,1
276,276,-0.07764628409072505,-0.1,False,480.0,542.0,1.0,3978.0,0
277,277,-0.04993970094834621,-0.0,False,452.0,518.0,1.0,4030.0,0
278,278,-0.1339426192589812,-0.1,False,473.0,804.0,0.0,723.0,1
279,279,0.27058028625860553,0.3,True,287.0,659.0,1.0,2754.0,1
280,280,-0.6315686438609152,-0.6,False,488.0,871.0,0.0,191.0,1
281,281,-0.1760974792181591,-0.2,False,475.0,588.0,0.0,1607.0,1
282,282,-0.6559023766101764,-0.7,False,456.0,773.0,0.0,261.0,1
283,283,0.06508426692349167,0.1,True,447.0,732.0,1.0,3821.0,1
284,284,0.5923057264119564,0.6,True,465.0,594.0,1.0,241.0,1
285,285,-0.8782081862502831,-0.9,False,430.0,940.0,0.0,180.0,1
286,286,-0.029566984180114275,-0.0,False,435.0,798.0,0.0,3767.0,1
287,287,-0.6034780446254195,-0.6,False,312.0,708.0,0.0,220.0,1
288,288,-0.04052030549696717,-0.0,False,463.0,749.0,1.0,3788.0,0
289,289,-0.8293576211250111,-0.8,False,373.0,896.0,0.0,221.0,1
290,290,0.05271575530112815,0.1,True,428.0,994.0,1.0,3578.0,1
291,291,0.025901404420285656,0.0,True,380.0,669.0,1.0,3951.0,1
292,292,0.04963814224724228,0.0,True,301.0,918.0,1.0,3781.0,1
293,293,0.48954495279786014,0.5,True,336.0,934.0,1.0,280.0,1
294,294,0.767512202737032,0.8,True,313.0,589.0,1.0,288.0,1
295,295,0.8669408625789545,0.9,True,487.0,798.0,1.0,145.0,1
296,296,0.7043504627819888,0.7,True,306.0,676.0,1.0,188.0,1
297,297,-0.07124428618424195,-0.1,False,307.0,747.0,0.0,3946.0,1
298,298,-0.7229672728882339,-0.7,False,361.0,703.0,0.0,276.0,1
299,299,-0.0602409165619846,-0.1,False,451.0,740.0,0.0,3809.0,1
300,300,0.5307870707271363,0.5,True,362.0,736.0,1.0,352.0,1
301,301,-0.4891178687605009,-0.5,False,495.0,589.0,0.0,376.0,1
302,302,-0.26773237463724175,-0.3,False,491.0,828.0,0.0,581.0,1
303,303,-0.33787064394555166,-0.3,False,403.0,960.0,0.0,1637.0,1
304,304,0.47855495062129894,0.5,True,496.0,815.0,1.0,439.0,1
305,305,-0.037135911397262245,-0.0,False,468.0,820.0,0.0,3712.0,1
306,306,-0.56687378679941,-0.6,False,427.0,820.0,0.0,213.0,1
307,307,0.18302712242499197,0.2,True,338.0,884.0,1.0,878.0,1
308,308,0.42911568234360886,0.4,True,414.0,891.0,1.0,525.0,1
309,309,0.06872764245266816,0.1,True,466.0,955.0,1.0,3579.0,1
310,310,0.09201473805247162,0.1,True,317.0,674.0,1.0,4009.0,1
311,311,0.8676051650214192,0.9,True,470.0,904.0,1.0,86.0,1
312,312,0.606045742254709,0.6,True,328.0,993.0,1.0,249.0,1
313,313,-0.0429208275667583,-0.0,False,385.0,886.0,0.0,2619.0,1
314,314,0.21451044251809792,0.2,True,254.0,949.0,1.0,2457.0,1
315,315,-0.07320464436818175,-0.1,False,312.0,809.0,0.0,3879.0,1
316,316,-0.642575670112377,-0.6,False,352.0,907.0,0.0,351.0,1
317,317,0.13140826162808716,0.1,True,341.0,573.0,1.0,956.0,1
318,318,-0.4980175927341435,-0.5,False,405.0,812.0,0.0,363.0,1
319,319,0.9568338484924501,1.0,True,440.0,728.0,1.0,72.0,1
320,320,-0.9661857666290425,-1.0,False,361.0,808.0,0.0,101.0,1
321,321,0.4134887565043097,0.4,True,443.0,773.0,1.0,444.0,1
322,322,-0.30243776836707603,-0.3,False,470.0,898.0,0.0,292.0,1
323,323,0.26413648977184967,0.3,True,337.0,957.0,1.0,1396.0,1
324,324,-0.19576562730335012,-0.2,False,303.0,902.0,0.0,385.0,1
325,325,-0.6014183029376536,-0.6,False,295.0,785.0,0.0,180.0,1
326,326,0.2598489268042694,0.3,True,392.0,557.0,1.0,861.0,1
327,327,-0.09213344281536417,-0.1,False,360.0,816.0,0.0,3824.0,1
328,328,-0.6579503485183955,-0.7,False,336.0,579.0,0.0,375.0,1
329,329,-0.10687477811749435,-0.1,False,422.0,596.0,0.0,3802.0,1
330,330,-0.6000760876103697,-0.6,False,460.0,839.0,0.0,111.0,1
331,331,-0.2790047211845832,-0.3,False,409.0,997.0,0.0,424.0,1
332,332,0.7819041465373449,0.8,True,450.0,621.0,1.0,139.0,1
333,333,-0.6445571939347794,-0.6,False,407.0,944.0,0.0,259.0,1
334,334,0.806884345616746,0.8,True,412.0,894.0,1.0,174.0,1
335,335,0.1813503571495645,0.2,True,252.0,504.0,1.0,3264.0,1
336,336,0.002328695975813977,0.0,True,421.0,605.0,0.0,3974.0,0
337,337,-0.5411890781262079,-0.5,False,361.0,815.0,0.0,354.0,1
338,338,-0.38101253871558893,-0.4,False,419.0,989.0,0.0,752.0,1
339,339,-0.3179903336244363,-0.3,False,258.0,988.0,0.0,414.0,1
340,340,-0.24237246992293882,-0.2,False,293.0,867.0,0.0,1210.0,1
341,341,-0.6954202913260017,-0.7,False,356.0,630.0,0.0,274.0,1
342,342,-0.8759373989281551,-0.9,False,441.0,968.0,0.0,191.0,1
343,343,-0.7329853636126289,-0.7,False,438.0,623.0,0.0,229.0,1
344,344,0.12426509148766729,0.1,True,429.0,517.0,1.0,4054.0,1
345,345,0.1447815175560836,0.1,True,315.0,519.0,1.0,1306.0,1
346,346,0.7400742414690646,0.7,True,404.0,544.0,1.0,272.0,1
347,347,0.9452136710243559,0.9,True,456.0,833.0,1.0,131.0,1
348,348,0.8375760188984334,0.8,True,289.0,550.0,1.0,151.0,1
349,349,-0.0336168325496502,-0.0,False,340.0,927.0,1.0,3733.0,0
350,350,0.6579043763495225,0.7,True,362.0,754.0,1.0,234.0,1
351,351,-0.01124910219695785,-0.0,False,330.0,731.0,1.0,3939.0,0
352,352,-0.9942098390998064,-1.0,False,332.0,843.0,0.0,185.0,1
353,353,0.8284538414888138,0.8,True,446.0,939.0,1.0,265.0,1
354,354,-0.9239405192340377,-0.9,False,333.0,682.0,0.0,145.0,1
355,355,0.44970886888229433,0.4,True,251.0,948.0,1.0,281.0,1
356,356,-0.20426387890117215,-0.2,False,376.0,765.0,0.0,2369.0,1
357,357,-0.6995492812602975,-0.7,False,480.0,543.0,0.0,447.0,1
358,358,-0.2060138761317183,-0.2,False,323.0,745.0,0.0,1682.0,1
359,359,0.7949574493376672,0.8,True,263.0,977.0,1.0,120.0,1
360,360,-0.20077186231621869,-0.2,False,405.0,581.0,0.0,2464.0,1
361,361,-0.17267462822684765,-0.2,False,352.0,994.0,0.0,3654.0,1
362,362,-0.5032595590989277,-0.5,False,259.0,862.0,0.0,579.0,1
363,363,0.5193883328906546,0.5,True,368.0,599.0,1.0,453.0,1
364,364,-0.2942067505169277,-0.3,False,350.0,767.0,0.0,383.0,1
365,365,0.20635362611471764,0.2,True,496.0,762.0,1.0,892.0,1
366,366,-0.1956694130330494,-0.2,False,309.0,619.0,0.0,2032.0,1
367,367,-0.6399200243633747,-0.6,False,436.0,812.0,0.0,252.0,1
368,368,0.3094131982344299,0.3,True,301.0,549.0,1.0,620.0,1
369,369,-0.14306461946407678,-0.1,False,407.0,680.0,0.0,2783.0,1
370,370,-0.09395802769465922,-0.1,False,472.0,680.0,0.0,3848.0,1
371,371,0.22499798304380825,0.2,True,379.0,533.0,1.0,2078.0,1
372,372,0.5214590042620688,0.5,True,407.0,649.0,1.0,234.0,1
373,373,-0.7143697018235438,-0.7,False,274.0,686.0,0.0,360.0,1
374,374,0.7001311712155676,0.7,True,332.0,545.0,1.0,233.0,1
375,375,-0.9778760869424201,-1.0,False,381.0,796.0,0.0,193.0,1
376,376,0.6641073367885859,0.7,True,434.0,799.0,1.0,187.0,1
377,377,-0.4319808799769733,-0.4,False,486.0,512.0,0.0,302.0,1
378,378,0.20545493102992252,0.2,True,443.0,738.0,1.0,3819.0,1
379,379,-0.3931286496012383,-0.4,False,337.0,592.0,0.0,411.0,1
380,380,0.6529751742196432,0.7,True,424.0,746.0,1.0,260.0,1
381,381,0.9218196975888058,0.9,True,385.0,778.0,1.0,157.0,1
382,382,-0.11305719949547366,-0.1,False,288.0,631.0,0.0,4081.0,1
383,383,-0.07227419195399287,-0.1,False,308.0,802.0,0.0,3890.0,1
384,384,0.42522190365878365,0.4,True,332.0,523.0,1.0,325.0,1
385,385,-0.3667623766659567,-0.4,False,379.0,717.0,0.0,264.0,1
386,386,0.2949695062104105,0.3,True,405.0,675.0,1.0,750.0,1
387,387,0.5004914279837924,0.5,True,348.0,674.0,1.0,488.0,1
388,388,-0.051976646364181756,-0.1,False,331.0,542.0,0.0,4127.0,1
389,389,0.3308307364282437,0.3,True,438.0,628.0,1.0,894.0,1
390,390,0.9581503648713054,1.0,True,391.0,611.0,1.0,98.0,1
391,391,-0.5424932761842836,-0.5,False,297.0,850.0,0.0,303.0,1
392,392,-0.9187630258055046,-0.9,False,408.0,710.0,0.0,172.0,1
393,393,0.7360864794727171,0.7,True,469.0,598.0,1.0,73.0,1
394,394,0.22216711309939097,0.2,True,311.0,667.0,1.0,1372.0,1
395,395,0.037970269685380975,0.0,True,384.0,526.0,1.0,4090.0,1
396,396,-0.6261576005020646,-0.6,False,310.0,998.0,0.0,152.0,1
397,397,0.8020937579642298,0.8,True,406.0,874.0,1.0,150.0,1
398,398,0.7413168243152664,0.7,True,419.0,851.0,1.0,190.0,1
399,399,-0.7982102155875084,-0.8,False,357.0,908.0,0.0,115.0,1
400,400,-0.1544850130767237,-0.2,False,448.0,612.0,0.0,3040.0,1
401,401,0.5963887045736798,0.6,True,418.0,691.0,1.0,171.0,1
402,402,-0.9898981668595379,-1.0,False,324.0,545.0,0.0,201.0,1
403,403,0.12600629985861178,0.1,True,340.0,882.0,1.0,3778.0,1
404,404,0.6312376587355799,0.6,True,454.0,692.0,1.0,384.0,1
405,405,-0.1257280281511326,-0.1,False,315.0,523.0,0.0,4162.0,1
406,406,0.7843500754271862,0.8,True,406.0,904.0,1.0,170.0,1
407,407,-0.8221008307198796,-0.8,False,490.0,902.0,0.0,168.0,1
408,408,-0.6303928987297971,-0.6,False,499.0,594.0,0.0,227.0,1
409,409,-0.04035063268676775,-0.0,False,269.0,987.0,1.0,3744.0,0
410,410,0.037927543221508264,0.0,True,294.0,875.0,1.0,3831.0,1
411,411,0.3793207253125459,0.4,True,400.0,883.0,1.0,517.0,1
412,412,0.8098358454302783,0.8,True,307.0,933.0,1.0,180.0,1
413,413,0.9357338544442981,0.9,True,329.0,504.0,1.0,137.0,1
414,414,-0.24218721465858728,-0.2,False,314.0,615.0,0.0,641.0,1
415,415,-0.020274474447658175,-0.0,False,388.0,572.0,0.0,4040.0,1
416,416,0.04456154877929541,0.0,True,263.0,603.0,1.0,4134.0,1
417,417,-0.9254441279204904,-0.9,False,445.0,833.0,0.0,132.0,1
418,418,-0.5325955074050313,-0.5,False,421.0,858.0,0.0,381.0,1
419,419,0.5948157484455505,0.6,True,310.0,776.0,1.0,324.0,1
420,420,0.837998666836931,0.8,True,487.0,941.0,1.0,122.0,1
421,421,-0.373427072296624,-0.4,False,336.0,826.0,0.0,468.0,1
422,422,-0.40339520523271477,-0.4,False,326.0,531.0,0.0,243.0,1
423,423,-0.12925698903112237,-0.1,False,304.0,928.0,0.0,3768.0,1
424,424,0.0063965230802194295,0.0,True,399.0,500.0,0.0,4101.0,0
425,425,-0.005426909819264081,-0.0,False,355.0,618.0,1.0,4027.0,0
426,426,0.9815378236035759,1.0,True,273.0,921.0,1.0,156.0,1
427,427,-0.8031431315494144,-0.8,False,475.0,997.0,0.0,288.0,1
428,428,-0.09918972890536937,-0.1,False,253.0,843.0,0.0,2094.0,1
429,429,0.9171317293315076,0.9,True,357.0,712.0,1.0,71.0,1
430,430,-0.3912735953812887,-0.4,False,366.0,514.0,0.0,490.0,1
431,431,0.6627669212239582,0.7,True,400.0,798.0,1.0,352.0,1
432,432,0.8613427585193716,0.9,True,335.0,576.0,1.0,109.0,1
433,433,-0.6802676783948305,-0.7,False,252.0,924.0,0.0,224.0,1
434,434,0.4399763563751833,0.4,True,287.0,653.0,1.0,530.0,1
435,435,0.4266073047776948,0.4,True,412.0,569.0,1.0,379.0,1
436,436,0.7875919637867175,0.8,True,457.0,583.0,1.0,210.0,1
437,437,0.941892788161595,0.9,True,363.0,865.0,1.0,152.0,1
438,438,0.16217140196060487,0.2,True,354.0,737.0,1.0,619.0,1
439,439,0.33755122565587725,0.3,True,312.0,740.0,1.0,758.0,1
440,440,-0.25193989583780607,-0.3,False,369.0,793.0,0.0,878.0,1
441,441,-0.38028198857083306,-0.4,False,262.0,593.0,0.0,675.0,1
442,442,-0.40437929779160875,-0.4,False,403.0,621.0,0.0,506.0,1
443,443,0.5277794047381112,0.5,True,326.0,902.0,1.0,182.0,1
444,444,0.6292058028372376,0.6,True,348.0,503.0,1.0,369.0,1
445,445,0.9515982395664289,1.0,True,318.0,536.0,1.0,86.0,1
446,446,-0.9744847732804185,-1.0,False,485.0,828.0,0.0,207.0,1
447,447,0.8383240105807617,0.8,True,400.0,626.0,1.0,184.0,1
448,448,0.30421251439327723,0.3,True,437.0,500.0,1.0,1043.0,1
449,449,-0.490533859872772,-0.5,False,268.0,923.0,0.0,249.0,1
450,450,-0.10685617824104665,-0.1,False,413.0,508.0,0.0,4079.0,1
451,451,0.346292160902715,0.3,True,259.0,742.0,1.0,719.0,1
452,452,0.8694642334026399,0.9,True,401.0,865.0,1.0,184.0,1
453,453,-0.6593342058438332,-0.7,False,317.0,915.0,0.0,328.0,1
454,454,0.6527575755753643,0.7,True,363.0,893.0,1.0,314.0,1
455,455,-0.0055567925289150555,-0.0,False,371.0,982.0,1.0,3647.0,0
456,456,0.06062777091637406,0.1,True,387.0,517.0,1.0,3286.0,1
457,457,-0.940586104821622,-0.9,False,263.0,671.0,0.0,226.0,1
458,458,0.2957963053170938,0.3,True,402.0,801.0,1.0,747.0,1
459,459,-0.6029977392392523,-0.6,False,384.0,515.0,0.0,311.0,1
460,460,-0.2971050934626349,-0.3,False,461.0,995.0,0.0,1034.0,1
461,461,0.5800774608686747,0.6,True,332.0,917.0,1.0,291.0,1
462,462,0.5345303630913416,0.5,True,470.0,671.0,1.0,469.0,1
463,463,-0.9750756196097983,-1.0,False,346.0,601.0,0.0,173.0,1
464,464,0.2802172731390198,0.3,True,330.0,802.0,1.0,428.0,1
465,465,-0.0870403474089565,-0.1,False,278.0,616.0,0.0,4106.0,1
466,466,-0.7182508472927709,-0.7,False,382.0,980.0,0.0,188.0,1
467,467,-0.8702512037184293,-0.9,False,387.0,677.0,0.0,276.0,1
468,468,-0.772429872426329,-0.8,False,307.0,557.0,0.0,226.0,1
469,469,0.5315289386831865,0.5,True,264.0,814.0,1.0,312.0,1
470,470,-0.5942828370218878,-0.6,False,379.0,570.0,0.0,361.0,1
471,471,0.3502678335499534,0.4,True,348.0,656.0,1.0,546.0,1
472,472,-0.2543053053897397,-0.3,False,302.0,730.0,0.0,2048.0,1
473,473,0.013070788327019134,0.0,True,380.0,845.0,0.0,3775.0,0
474,474,-0.10376920358391617,-0.1,False,497.0,770.0,0.0,3733.0,1
475,475,0.18672965436003697,0.2,True,311.0,701.0,1.0,3428.0,1
476,476,0.01000122304915263,0.0,True,379.0,912.0,0.0,3709.0,0
477,477,-0.853537524547999,-0.9,False,427.0,638.0,0.0,145.0,1
478,478,-0.6786799939023034,-0.7,False,308.0,809.0,0.0,273.0,1
479,479,-0.7163939930616186,-0.7,False,346.0,516.0,0.0,218.0,1
480,480,0.5479570385535555,0.5,True,326.0,606.0,1.0,288.0,1
481,481,0.25063829070202504,0.3,True,370.0,567.0,1.0,773.0,1
482,482,0.9796205604881172,1.0,True,428.0,620.0,1.0,162.0,1
483,483,-0.6556252043486903,-0.7,False,404.0,873.0,0.0,293.0,1
484,484,0.28317231165327383,0.3,True,445.0,743.0,1.0,332.0,1
485,485,-0.5662207758860498,-0.6,False,373.0,918.0,0.0,279.0,1
486,486,-0.03479988239681253,-0.0,False,417.0,642.0,1.0,3941.0,0
487,487,0.9120959301836464,0.9,True,292.0,616.0,1.0,132.0,1
488,488,0.4591065386137423,0.5,True,361.0,825.0,1.0,184.0,1
489,489,0.48044005224788355,0.5,True,325.0,563.0,1.0,132.0,1
490,490,0.7624159799174324,0.8,True,377.0,809.0,1.0,134.0,1
491,491,0.07978478555080137,0.1,True,430.0,685.0,1.0,3885.0,1
492,492,0.7054677547976689,0.7,True,391.0,884.0,1.0,175.0,1
493,493,0.6686974412541737,0.7,True,336.0,692.0,1.0,112.0,1
494,494,-0.5694868994282436,-0.6,False,382.0,612.0,0.0,236.0,1
495,495,0.5433537162658018,0.5,True,404.0,518.0,1.0,188.0,1
496,496,0.5692239852963954,0.6,True,354.0,982.0,1.0,274.0,1
497,497,-0.569773948932742,-0.6,False,278.0,944.0,0.0,268.0,1
498,498,0.28249100116582393,0.3,True,314.0,835.0,1.0,1541.0,1
499,499,-0.15065926980167288,-0.2,False,456.0,813.0,0.0,3731.0,1
500,500,0.9520268353651253,1.0,True,322.0,601.0,1.0,187.0,1
501,501,0.1625601067439293,0.2,True,340.0,894.0,1.0,836.0,1
502,502,-0.3392391664853165,-0.3,False,350.0,934.0,0.0,916.0,1
503,503,0.3631183077761988,0.4,True,496.0,713.0,1.0,381.0,1
504,504,0.4409917582512488,0.4,True,412.0,810.0,1.0,438.0,1
505,505,0.4991802860435335,0.5,True,307.0,723.0,1.0,280.0,1
506,506,0.17038939391253205,0.2,True,271.0,532.0,1.0,357.0,1
507,507,0.9058249189941658,0.9,True,459.0,704.0,1.0,177.0,1
508,508,0.4364668229536399,0.4,True,323.0,547.0,1.0,470.0,1
509,509,0.5709861201788768,0.6,True,464.0,548.0,1.0,248.0,1
510,510,0.1353372444638885,0.1,True,264.0,567.0,1.0,4169.0,1
511,511,-0.9147506664664853,-0.9,False,414.0,744.0,0.0,212.0,1
512,512,0.11887338508815293,0.1,True,357.0,623.0,1.0,1930.0,1
513,513,-0.17673012347771433,-0.2,False,468.0,932.0,0.0,1200.0,1
514,514,-0.7803408567788703,-0.8,False,298.0,830.0,0.0,222.0,1
515,515,-0.0855748099966882,-0.1,False,255.0,959.0,0.0,3786.0,1
516,516,-0.5168588060584223,-0.5,False,471.0,682.0,0.0,497.0,1
517,517,0.04217347245580916,0.0,True,320.0,594.0,1.0,4086.0,1
518,518,0.8476289648953652,0.8,True,345.0,651.0,1.0,184.0,1
519,519,-0.9106071794065462,-0.9,False,310.0,895.0,0.0,265.0,1
520,520,0.5781353127405888,0.6,True,391.0,746.0,1.0,273.0,1
521,521,-0.7279346227711541,-0.7,False,355.0,828.0,0.0,127.0,1
522,522,0.9906115223342362,1.0,True,368.0,526.0,1.0,156.0,1
523,523,-0.8181155700726386,-0.8,False,379.0,857.0,0.0,124.0,1
524,524,0.8399540660915701,0.8,True,388.0,799.0,1.0,173.0,1
525,525,0.6870321512098327,0.7,True,326.0,979.0,1.0,215.0,1
526,526,-0.007655993457249766,-0.0,False,315.0,637.0,0.0,4048.0,1
527,527,0.5790206674625524,0.6,True,352.0,534.0,1.0,264.0,1
528,528,0.16104586728060855,0.2,True,449.0,608.0,1.0,2693.0,1
529,529,0.7990000475735637,0.8,True,258.0,532.0,1.0,280.0,1
530,530,-0.18732853764627921,-0.2,False,301.0,821.0,0.0,2108.0,1
531,531,-0.3022534422524574,-0.3,False,483.0,971.0,0.0,1986.0,1
532,532,-0.32098341722847,-0.3,False,411.0,828.0,0.0,1401.0,1
533,533,-0.06583968036844667,-0.1,False,278.0,821.0,0.0,3901.0,1
534,534,-0.9922959641254534,-1.0,False,373.0,972.0,0.0,125.0,1
535,535,0.9079415854697137,0.9,True,476.0,582.0,1.0,202.0,1
536,536,0.5812127910938498,0.6,True,264.0,597.0,1.0,749.0,1
537,537,0.8575220990879917,0.9,True,334.0,635.0,1.0,141.0,1
538,538,-0.47172854843672507,-0.5,False,394.0,943.0,0.0,503.0,1
539,539,-0.754591985771512,-0.8,False,278.0,529.0,0.0,203.0,1
540,540,0.003617901345079222,0.0,True,368.0,718.0,0.0,3914.0,0
541,541,-0.2973972525237827,-0.3,False,273.0,964.0,0.0,1313.0,1
542,542,0.7007527274215939,0.7,True,399.0,591.0,1.0,270.0,1
543,543,0.20506906000045944,0.2,True,336.0,638.0,1.0,2076.0,1
544,544,-0.15817166074278455,-0.2,False,325.0,882.0,0.0,2213.0,1
545,545,-0.15396730805980408,-0.2,False,441.0,603.0,0.0,3956.0,1
546,546,-0.7384032667549227,-0.7,False,294.0,902.0,0.0,154.0,1
547,547,0.05490652574657284,0.1,True,428.0,955.0,1.0,3617.0,1
548,548,-0.24370045228480008,-0.2,False,495.0,991.0,0.0,1264.0,1
549,549,0.27983066479185714,0.3,True,364.0,934.0,1.0,602.0,1
550,550,0.069261123156793,0.1,True,422.0,585.0,1.0,3993.0,1
551,551,-0.9214746650559638,-0.9,False,495.0,661.0,0.0,154.0,1
552,552,-0.8384884918196038,-0.8,False,439.0,604.0,0.0,297.0,1
553,553,0.7684817629222582,0.8,True,400.0,563.0,1.0,167.0,1
554,554,0.37782437487882414,0.4,True,411.0,783.0,1.0,496.0,1
555,555,-0.30408641537735903,-0.3,False,379.0,669.0,0.0,722.0,1
556,556,0.32029981992702816,0.3,True,370.0,772.0,1.0,278.0,1
557,557,-0.5976573303958179,-0.6,False,361.0,670.0,0.0,159.0,1
558,558,0.452869636145911,0.5,True,448.0,752.0,1.0,460.0,1
559,559,0.4025026999934924,0.4,True,441.0,627.0,1.0,672.0,1
560,560,-0.3337339367495662,-0.3,False,295.0,775.0,0.0,1050.0,1
561,561,-0.337042273599633,-0.3,False,491.0,568.0,0.0,641.0,1
562,562,-0.937487241547621,-0.9,False,475.0,859.0,0.0,186.0,1
563,563,-0.7317009573496396,-0.7,False,457.0,783.0,0.0,180.0,1
564,564,-0.8978734444877892,-0.9,False,397.0,976.0,0.0,247.0,1
565,565,-0.8071288205030909,-0.8,False,411.0,577.0,0.0,182.0,1
566,566,0.25597332371359927,0.3,True,284.0,625.0,1.0,401.0,1
567,567,0.40360699396580646,0.4,True,284.0,842.0,1.0,594.0,1
568,568,-0.8396492919097813,-0.8,False,450.0,831.0,0.0,179.0,1
569,569,-0.880055627132208,-0.9,False,411.0,979.0,0.0,150.0,1
570,570,-0.8833233804326419,-0.9,False,376.0,549.0,0.0,75.0,1
571,571,-0.003204968141434561,-0.0,False,435.0,881.0,0.0,3684.0,1
572,572,-0.24342848894933233,-0.2,False,317.0,503.0,0.0,940.0,1
573,573,0.08567103800105746,0.1,True,287.0,578.0,1.0,2595.0,1
574,574,-0.9338127073311,-0.9,False,328.0,880.0,0.0,132.0,1
575,575,-0.3034494653889208,-0.3,False,285.0,649.0,0.0,726.0,1
576,576,0.7832027547631271,0.8,True,337.0,576.0,1.0,247.0,1
577,577,-0.838714663032692,-0.8,False,499.0,952.0,0.0,239.0,1
578,578,-0.8414483264308297,-0.8,False,358.0,949.0,0.0,213.0,1
579,579,0.058813334525162686,0.1,True,471.0,857.0,1.0,3672.0,1
580,580,0.8881502751641097,0.9,True,455.0,638.0,1.0,107.0,1
581,581,0.9481675027681078,0.9,True,404.0,833.0,1.0,143.0,1
582,582,0.5490364976130264,0.5,True,259.0,691.0,1.0,150.0,1
583,583,-0.016185364338738406,-0.0,False,338.0,826.0,0.0,3836.0,1
584,584,-0.959027505811824,-1.0,False,340.0,984.0,0.0,96.0,1
585,585,0.12266088765129912,0.1,True,252.0,733.0,1.0,4015.0,1
586,586,-0.729384158953424,-0.7,False,374.0,867.0,0.0,279.0,1
587,587,0.09988746180161501,0.1,True,363.0,713.0,1.0,3924.0,1
588,588,0.19514892214638468,0.2,True,252.0,501.0,1.0,1657.0,1
589,589,-0.43996468749669604,-0.4,False,340.0,515.0,0.0,465.0,1
590,590,0.28625061758610415,0.3,True,274.0,816.0,1.0,730.0,1
591,591,-0.05192235732879236,-0.1,False,341.0,827.0,0.0,3832.0,1
592,592,-0.04511887798429992,-0.0,False,276.0,904.0,1.0,3820.0,0
593,593,-0.5102243196163574,-0.5,False,415.0,970.0,0.0,335.0,1
594,594,0.6508425458911886,0.7,True,267.0,524.0,1.0,229.0,1
595,595,0.32277618077644377,0.3,True,364.0,534.0,1.0,752.0,1
596,596,0.48824977869715736,0.5,True,317.0,809.0,1.0,284.0,1
597,597,0.8307370685004323,0.8,True,417.0,877.0,1.0,226.0,1
598,598,-0.10789266995747782,-0.1,False,368.0,818.0,0.0,3814.0,1
599,599,0.44376811186240217,0.4,True,292.0,696.0,1.0,392.0,1
600,600,0.37836027125218186,0.4,True,373.0,591.0,1.0,346.0,1
601,601,0.012424059554270839,0.0,True,429.0,741.0,0.0,3830.0,0
602,602,0.9229931703858669,0.9,True,496.0,614.0,1.0,170.0,1
603,603,0.9119103275801195,0.9,True,387.0,956.0,1.0,107.0,1
604,604,-0.04632827198449907,-0.0,False,280.0,983.0,0.0,3737.0,1
605,605,-0.33781060387294803,-0.3,False,495.0,723.0,0.0,322.0,1
606,606,0.6639829107628541,0.7,True,387.0,548.0,1.0,145.0,1
607,607,-0.7965736762784472,-0.8,False,414.0,626.0,0.0,140.0,1
608,608,-0.5570222471230919,-0.6,False,265.0,620.0,0.0,355.0,1
609,609,0.5847592062894302,0.6,True,340.0,887.0,1.0,243.0,1
610,610,-0.18349061767132246,-0.2,False,440.0,828.0,0.0,1522.0,1
611,611,0.9742247998725759,1.0,True,448.0,642.0,1.0,190.0,1
612,612,0.03200795951126234,0.0,True,437.0,765.0,1.0,3798.0,1
613,613,0.6517940607720865,0.7,True,454.0,695.0,1.0,231.0,1
614,614,0.21448807269478043,0.2,True,344.0,953.0,1.0,643.0,1
615,615,0.5333451116882477,0.5,True,352.0,701.0,1.0,367.0,1
616,616,0.828223712699,0.8,True,455.0,622.0,1.0,183.0,1
617,617,0.8000113593469336,0.8,True,478.0,618.0,1.0,254.0,1
618,618,-0.43072234541744336,-0.4,False,319.0,507.0,0.0,534.0,1
619,619,-0.4135364153666825,-0.4,False,341.0,806.0,0.0,283.0,1
620,620,-0.4538965688524572,-0.5,False,436.0,881.0,0.0,373.0,1
621,621,-0.2720771124685346,-0.3,False,392.0,724.0,0.0,544.0,1
622,622,0.528416502203608,0.5,True,253.0,614.0,1.0,253.0,1
623,623,-0.2536126062683133,-0.3,False,359.0,528.0,0.0,583.0,1
624,624,-0.494719264344728,-0.5,False,383.0,603.0,0.0,294.0,1
625,625,0.4611114551642834,0.5,True,260.0,504.0,1.0,296.0,1
626,626,0.30884571566480146,0.3,True,368.0,820.0,1.0,762.0,1
627,627,0.44426612547691957,0.4,True,362.0,566.0,1.0,272.0,1
628,628,0.014818463121898606,0.0,True,334.0,725.0,0.0,3941.0,0
629,629,-0.9361555713032323,-0.9,False,340.0,668.0,0.0,192.0,1
630,630,-0.35128195369185744,-0.4,False,400.0,610.0,0.0,390.0,1
631,631,-0.7150353775066676,-0.7,False,378.0,976.0,0.0,306.0,1
632,632,0.307285246377222,0.3,True,485.0,965.0,1.0,660.0,1
633,633,-0.3248901922817484,-0.3,False,436.0,839.0,0.0,535.0,1
634,634,-0.6462187219958162,-0.6,False,479.0,902.0,0.0,239.0,1
635,635,0.4692221927240068,0.5,True,420.0,602.0,1.0,298.0,1
636,636,0.8700290234006078,0.9,True,354.0,852.0,1.0,124.0,1
637,637,0.2550555682767255,0.3,True,376.0,709.0,1.0,1065.0,1
638,638,-0.5513546894860157,-0.6,False,321.0,524.0,0.0,215.0,1
639,639,0.25354530843406176,0.3,True,423.0,626.0,1.0,591.0,1
640,640,0.7023525026130846,0.7,True,437.0,732.0,1.0,121.0,1
641,641,0.36826398643207714,0.4,True,442.0,743.0,1.0,995.0,1
642,642,-0.6706597207819556,-0.7,False,441.0,838.0,0.0,211.0,1
643,643,0.9856450633031868,1.0,True,390.0,588.0,1.0,112.0,1
644,644,-0.7553359451594841,-0.8,False,286.0,914.0,0.0,170.0,1
645,645,0.28656865829460454,0.3,True,460.0,945.0,1.0,345.0,1
646,646,-0.8546788877633702,-0.9,False,266.0,906.0,0.0,208.0,1
647,647,-0.8527100256096627,-0.9,False,309.0,782.0,0.0,179.0,1
648,648,-0.8879516537889454,-0.9,False,351.0,961.0,0.0,258.0,1
649,649,0.6552524366148169,0.7,True,493.0,591.0,1.0,146.0,1
650,650,-0.5189408908166171,-0.5,False,359.0,821.0,0.0,300.0,1
651,651,-0.050308626879282725,-0.1,False,365.0,602.0,0.0,4033.0,1
652,652,-0.80881251391524,-0.8,False,495.0,623.0,0.0,142.0,1
653,653,0.7302041600584686,0.7,True,308.0,697.0,1.0,135.0,1
654,654,0.20658682684955698,0.2,True,272.0,973.0,1.0,3755.0,1
655,655,0.5202891494663384,0.5,True,412.0,904.0,1.0,524.0,1
656,656,0.14018651751039002,0.1,True,302.0,658.0,1.0,1490.0,1
657,657,-0.2356600115680858,-0.2,False,471.0,656.0,0.0,2373.0,1
658,658,-0.5727218699326098,-0.6,False,252.0,824.0,0.0,484.0,1
659,659,-0.5545992082448583,-0.6,False,324.0,589.0,0.0,357.0,1
660,660,-0.9012105135073187,-0.9,False,423.0,689.0,0.0,258.0,1
661,661,-0.750415040296798,-0.8,False,443.0,780.0,0.0,137.0,1
662,662,-0.2550666489490161,-0.3,False,437.0,992.0,0.0,731.0,1
663,663,0.7454193783256937,0.7,True,330.0,820.0,1.0,100.0,1
664,664,0.14183521930766174,0.1,True,433.0,671.0,1.0,3416.0,1
665,665,-0.6870712840287958,-0.7,False,436.0,701.0,0.0,173.0,1
666,666,-0.5533451816162436,-0.6,False,486.0,540.0,0.0,374.0,1
667,667,0.044016798841742366,0.0,True,298.0,676.0,0.0,4026.0,0
668,668,-0.6031059862581152,-0.6,False,444.0,930.0,0.0,196.0,1
669,669,0.14016112348485144,0.1,True,321.0,583.0,1.0,4096.0,1
670,670,0.8247598067116366,0.8,True,349.0,580.0,1.0,221.0,1
671,671,-0.593703454835049,-0.6,False,371.0,608.0,0.0,301.0,1
672,672,0.5980301130431962,0.6,True,399.0,981.0,1.0,180.0,1
673,673,0.04981557447517426,0.0,True,410.0,907.0,1.0,3073.0,1
674,674,0.869528499123875,0.9,True,329.0,834.0,1.0,207.0,1
675,675,-0.7539021069694696,-0.8,False,443.0,943.0,0.0,134.0,1
676,676,-0.26475540383841834,-0.3,False,374.0,940.0,0.0,786.0,1
677,677,-0.40016937014544207,-0.4,False,357.0,926.0,0.0,317.0,1
678,678,0.061974847941137945,0.1,True,397.0,955.0,0.0,3648.0,0
679,679,0.24153037230675056,0.2,True,275.0,662.0,1.0,793.0,1
680,680,-0.03516649470348865,-0.0,False,482.0,832.0,0.0,3686.0,1
681,681,0.17075893842775125,0.2,True,451.0,750.0,1.0,1429.0,1
682,682,-0.18121028055749244,-0.2,False,369.0,716.0,0.0,1935.0,1
683,683,-0.55923687566994,-0.6,False,369.0,857.0,0.0,374.0,1
684,684,0.8334217620390822,0.8,True,312.0,649.0,1.0,89.0,1
685,685,0.8978752534173071,0.9,True,255.0,597.0,1.0,108.0,1
686,686,-0.1620903208025848,-0.2,False,313.0,770.0,0.0,3917.0,1
687,687,0.4475634862629334,0.4,True,352.0,631.0,1.0,147.0,1
688,688,0.8591330294956512,0.9,True,310.0,790.0,1.0,130.0,1
689,689,0.08223417292519142,0.1,True,412.0,526.0,1.0,4062.0,1
690,690,-0.7769687245732231,-0.8,False,353.0,701.0,0.0,136.0,1
691,691,0.4571214884149468,0.5,True,265.0,585.0,1.0,380.0,1
692,692,0.07141953724014272,0.1,True,495.0,983.0,1.0,2382.0,1
693,693,-0.646162862855203,-0.6,False,471.0,941.0,0.0,108.0,1
694,694,0.6589342546003123,0.7,True,482.0,879.0,1.0,99.0,1
695,695,0.06209887847932616,0.1,True,329.0,854.0,1.0,3817.0,1
696,696,0.12182881318167782,0.1,True,461.0,692.0,1.0,3847.0,1
697,697,-0.6324950017416056,-0.6,False,319.0,950.0,0.0,231.0,1
698,698,0.15957647472023706,0.2,True,316.0,706.0,1.0,3978.0,1
699,699,0.4838711278648533,0.5,True,300.0,744.0,1.0,356.0,1
700,700,-0.6633528071855037,-0.7,False,351.0,736.0,0.0,283.0,1
701,701,-0.6374841788745393,-0.6,False,312.0,667.0,0.0,221.0,1
702,702,-0.21293534880098397,-0.2,False,436.0,640.0,0.0,694.0,1
703,703,-0.8844187414381264,-0.9,False,271.0,647.0,0.0,192.0,1
704,704,-0.26437943745551507,-0.3,False,338.0,631.0,0.0,881.0,1
705,705,-0.44196147606141145,-0.4,False,460.0,637.0,0.0,673.0,1
706,706,0.4805944058879801,0.5,True,327.0,538.0,1.0,175.0,1
707,707,0.4475720709372939,0.4,True,267.0,640.0,1.0,563.0,1
708,708,0.5477104669922181,0.5,True,371.0,729.0,1.0,250.0,1
709,709,0.3131983364433957,0.3,True,374.0,596.0,1.0,340.0,1
710,710,-0.7902485748559098,-0.8,False,367.0,780.0,0.0,223.0,1
711,711,0.4035079513433306,0.4,True,429.0,621.0,1.0,660.0,1
712,712,0.03953003300688662,0.0,True,348.0,518.0,1.0,4134.0,1
713,713,0.5353885674655607,0.5,True,499.0,573.0,1.0,258.0,1
714,714,-0.946128065299424,-0.9,False,497.0,624.0,0.0,109.0,1
715,715,0.9405404429789979,0.9,True,289.0,731.0,1.0,120.0,1
716,716,0.3259533944246833,0.3,True,351.0,940.0,1.0,1039.0,1
717,717,0.7735895836186899,0.8,True,319.0,663.0,1.0,168.0,1
718,718,0.192839474548834,0.2,True,344.0,715.0,1.0,1881.0,1
719,719,0.20444187954785553,0.2,True,495.0,614.0,1.0,1211.0,1
720,720,0.3380141908442429,0.3,True,286.0,957.0,1.0,657.0,1
721,721,0.40310372933913885,0.4,True,490.0,566.0,1.0,504.0,1
722,722,0.9014003749025326,0.9,True,395.0,775.0,1.0,190.0,1
723,723,0.7676877285593444,0.8,True,261.0,722.0,1.0,227.0,1
724,724,0.6516712424527251,0.7,True,263.0,500.0,1.0,177.0,1
725,725,0.9695916858195008,1.0,True,380.0,995.0,1.0,125.0,1
726,726,0.05085659406484866,0.1,True,497.0,924.0,1.0,3579.0,1
727,727,0.8770080424422424,0.9,True,376.0,529.0,1.0,85.0,1
728,728,0.8046118044836568,0.8,True,292.0,826.0,1.0,82.0,1
729,729,-0.7510933223651319,-0.8,False,345.0,752.0,0.0,243.0,1
730,730,-0.506516113971373,-0.5,False,407.0,982.0,0.0,411.0,1
731,731,0.7436852742927698,0.7,True,412.0,653.0,1.0,155.0,1
732,732,-0.8062008317578957,-0.8,False,382.0,597.0,0.0,221.0,1
733,733,0.25624907861398527,0.3,True,409.0,505.0,1.0,1406.0,1
734,734,0.7992812674018908,0.8,True,393.0,917.0,1.0,170.0,1
735,735,-0.7248561141666059,-0.7,False,259.0,582.0,0.0,319.0,1
736,736,0.20863882569859493,0.2,True,429.0,629.0,1.0,872.0,1
737,737,-0.36357315490400044,-0.4,False,460.0,612.0,0.0,528.0,1
738,738,-0.009108112030019822,-0.0,False,466.0,701.0,1.0,3833.0,0
739,739,0.5857871350655157,0.6,True,265.0,643.0,1.0,262.0,1
740,740,-0.1070785335672848,-0.1,False,443.0,933.0,0.0,3624.0,1
741,741,-0.7510656143264618,-0.8,False,323.0,955.0,0.0,232.0,1
742,742,-0.014180155619434087,-0.0,False,411.0,973.0,0.0,3616.0,1
743,743,0.8929171051271731,0.9,True,260.0,975.0,1.0,105.0,1
744,744,-0.7370194952982865,-0.7,False,494.0,928.0,0.0,198.0,1
745,745,0.8550459228310452,0.9,True,251.0,796.0,1.0,153.0,1
746,746,0.5304447698188046,0.5,True,280.0,539.0,1.0,341.0,1
747,747,0.7066941844844956,0.7,True,473.0,662.0,1.0,155.0,1
748,748,0.9568580611519037,1.0,True,331.0,500.0,1.0,139.0,1
749,749,-0.11625881252673764,-0.1,False,416.0,610.0,0.0,3974.0,1
750,750,0.6002386415147427,0.6,True,308.0,870.0,1.0,312.0,1
751,751,-0.2456984524814878,-0.2,False,328.0,615.0,0.0,1417.0,1
752,752,0.31552414709048615,0.3,True,346.0,696.0,1.0,658.0,1
753,753,-0.3752607372684724,-0.4,False,470.0,979.0,0.0,901.0,1
754,754,-0.17985926267888064,-0.2,False,373.0,706.0,0.0,1831.0,1
755,755,0.07296640710176772,0.1,True,250.0,860.0,1.0,3890.0,1
756,756,-0.6268391736152987,-0.6,False,285.0,876.0,0.0,189.0,1
757,757,-0.6532287089966651,-0.7,False,468.0,831.0,0.0,191.0,1
758,758,-0.056209976066029066,-0.1,False,379.0,768.0,0.0,3853.0,1
759,759,0.623101752019873,0.6,True,460.0,693.0,1.0,177.0,1
760,760,0.6301091823224081,0.6,True,250.0,796.0,1.0,324.0,1
761,761,-0.5341823773179395,-0.5,False,409.0,757.0,0.0,354.0,1
762,762,0.9370753401732337,0.9,True,271.0,766.0,1.0,113.0,1
763,763,-0.177018328969472,-0.2,False,319.0,581.0,0.0,1690.0,1
764,764,-0.7099940872343271,-0.7,False,482.0,699.0,0.0,259.0,1
765,765,-0.07220530009182569,-0.1,False,260.0,862.0,0.0,3878.0,1
766,766,0.16370302925356262,0.2,True,463.0,853.0,1.0,3684.0,1
767,767,0.47713785405708475,0.5,True,309.0,646.0,1.0,255.0,1
768,768,0.915912444666996,0.9,True,436.0,640.0,1.0,144.0,1
769,769,-0.8606129085131942,-0.9,False,270.0,628.0,0.0,102.0,1
770,770,-0.6013176523042532,-0.6,False,466.0,579.0,0.0,245.0,1
771,771,-0.10253455207855855,-0.1,False,286.0,575.0,0.0,1909.0,1
772,772,0.6810470618615128,0.7,True,382.0,631.0,1.0,217.0,1
773,773,0.4649653182922078,0.5,True,348.0,887.0,1.0,295.0,1
774,774,-0.840568573824257,-0.8,False,433.0,587.0,0.0,180.0,1
775,775,-0.5923349887445062,-0.6,False,299.0,649.0,0.0,272.0,1
776,776,0.9409831548737198,0.9,True,251.0,980.0,1.0,199.0,1
777,777,-0.1666730119887705,-0.2,False,366.0,734.0,0.0,1070.0,1
778,778,0.6334223043023388,0.6,True,271.0,669.0,1.0,110.0,1
779,779,-0.45324085615289067,-0.5,False,296.0,807.0,0.0,457.0,1
780,780,0.39138629195757924,0.4,True,312.0,826.0,1.0,372.0,1
781,781,-0.8209828483316464,-0.8,False,434.0,964.0,0.0,122.0,1
782,782,-0.6858901940120739,-0.7,False,441.0,795.0,0.0,184.0,1
783,783,-0.4932989052649932,-0.5,False,256.0,518.0,0.0,306.0,1
784,784,0.6538847827484342,0.7,True,331.0,941.0,1.0,268.0,1
785,785,0.4063678074766848,0.4,True,412.0,818.0,1.0,820.0,1
786,786,-0.6617111640228606,-0.7,False,360.0,972.0,0.0,338.0,1
787,787,0.49168929804125217,0.5,True,371.0,892.0,1.0,207.0,1
788,788,0.39053263725763565,0.4,True,435.0,849.0,1.0,516.0,1
789,789,0.16251436251859208,0.2,True,254.0,931.0,1.0,2005.0,1
790,790,0.20344310392378873,0.2,True,292.0,882.0,1.0,3076.0,1
791,791,0.7327943365221778,0.7,True,383.0,819.0,1.0,258.0,1
792,792,-0.2148802620560999,-0.2,False,430.0,525.0,0.0,1865.0,1
793,793,-0.7768227961709608,-0.8,False,257.0,949.0,0.0,124.0,1
794,794,0.847807837867854,0.8,True,487.0,736.0,1.0,187.0,1
795,795,-0.22412970475467597,-0.2,False,482.0,889.0,0.0,479.0,1
796,796,0.4110246347005486,0.4,True,258.0,549.0,1.0,373.0,1
797,797,0.5498678649657984,0.5,True,444.0,805.0,1.0,291.0,1
798,798,-0.058069942855481615,-0.1,False,411.0,643.0,0.0,3946.0,1
799,799,0.566498172373533,0.6,True,308.0,546.0,1.0,436.0,1
800,800,0.47453814344691514,0.5,True,329.0,827.0,1.0,564.0,1
801,801,0.03666506242586132,0.0,True,294.0,737.0,1.0,3969.0,1
802,802,0.7682929278245483,0.8,True,462.0,622.0,1.0,216.0,1
803,803,0.5088349656419815,0.5,True,395.0,765.0,1.0,210.0,1
804,804,-0.6483011339737803,-0.6,False,359.0,896.0,0.0,85.0,1
805,805,0.2705065007085936,0.3,True,437.0,581.0,1.0,1442.0,1
806,806,0.688884724153294,0.7,True,424.0,971.0,1.0,215.0,1
807,807,0.570399458989646,0.6,True,430.0,806.0,1.0,234.0,1
808,808,0.6496715692843389,0.6,True,457.0,766.0,1.0,157.0,1
809,809,-0.47299183371878417,-0.5,False,413.0,791.0,0.0,296.0,1
810,810,0.9953175354095416,1.0,True,292.0,623.0,1.0,155.0,1
811,811,0.6336814667908439,0.6,True,357.0,501.0,1.0,182.0,1
812,812,-0.43130878339326517,-0.4,False,324.0,975.0,0.0,551.0,1
813,813,-0.8397858088924193,-0.8,False,411.0,550.0,0.0,279.0,1
814,814,-0.7222002335782216,-0.7,False,479.0,659.0,0.0,232.0,1
815,815,0.8566726611829913,0.9,True,304.0,589.0,1.0,177.0,1
816,816,-0.17078140441227796,-0.2,False,281.0,748.0,0.0,3971.0,1
817,817,-0.2828567507526012,-0.3,False,348.0,546.0,0.0,616.0,1
818,818,-0.7515632012813092,-0.8,False,259.0,964.0,0.0,227.0,1
819,819,-0.13896395698164898,-0.1,False,324.0,872.0,0.0,2214.0,1
820,820,-0.49850161288253303,-0.5,False,453.0,929.0,0.0,258.0,1
821,821,0.1159096412396976,0.1,True,388.0,787.0,1.0,2675.0,1
822,822,0.14544372592240973,0.1,True,366.0,551.0,1.0,2473.0,1
823,823,0.757881123815374,0.8,True,480.0,812.0,1.0,188.0,1
824,824,0.9009744105833208,0.9,True,377.0,542.0,1.0,151.0,1
825,825,0.06245543683449162,0.1,True,389.0,606.0,1.0,4005.0,1
826,826,0.587778461049167,0.6,True,473.0,785.0,1.0,352.0,1
827,827,-0.24926916117843612,-0.2,False,443.0,543.0,0.0,1194.0,1
828,828,0.6144866503316257,0.6,True,267.0,876.0,1.0,147.0,1
829,829,0.8607195704406299,0.9,True,474.0,845.0,1.0,201.0,1
830,830,0.415825427195587,0.4,True,386.0,745.0,1.0,469.0,1
831,831,-0.19714332327878714,-0.2,False,349.0,660.0,0.0,2761.0,1
832,832,-0.3328161828487364,-0.3,False,342.0,666.0,0.0,1002.0,1
833,833,-0.1369401181401575,-0.1,False,299.0,831.0,0.0,3870.0,1
834,834,0.37205132388967344,0.4,True,482.0,869.0,1.0,369.0,1
835,835,-0.8118148150592155,-0.8,False,393.0,507.0,0.0,180.0,1
836,836,-0.1996507467422559,-0.2,False,273.0,696.0,0.0,1341.0,1
837,837,-0.8705524282123247,-0.9,False,346.0,993.0,0.0,221.0,1
838,838,0.36473024559656353,0.4,True,319.0,553.0,1.0,688.0,1
839,839,0.8673016982766768,0.9,True,255.0,983.0,1.0,222.0,1
840,840,-0.6768057833602483,-0.7,False,265.0,564.0,0.0,231.0,1
841,841,0.20225159824369032,0.2,True,382.0,605.0,1.0,2403.0,1
842,842,-0.7603868231908997,-0.8,False,404.0,999.0,0.0,147.0,1
843,843,-0.9017458288509816,-0.9,False,498.0,527.0,0.0,175.0,1
844,844,0.6841281260923417,0.7,True,377.0,751.0,1.0,282.0,1
845,845,0.8019054639132104,0.8,True,445.0,906.0,1.0,149.0,1
846,846,0.254553571287643,0.3,True,264.0,823.0,1.0,1563.0,1
847,847,-0.3161169064135019,-0.3,False,272.0,954.0,0.0,374.0,1
848,848,-0.8577160263260692,-0.9,False,490.0,878.0,0.0,132.0,1
849,849,0.5939723303603239,0.6,True,308.0,897.0,1.0,215.0,1
850,850,0.45103377987384263,0.5,True,323.0,757.0,1.0,230.0,1
851,851,-0.3259737917730845,-0.3,False,313.0,870.0,0.0,437.0,1
852,852,0.07323410020780541,0.1,True,261.0,991.0,1.0,3748.0,1
853,853,0.6132868096904278,0.6,True,399.0,821.0,1.0,170.0,1
854,854,0.012988380309428171,0.0,True,406.0,518.0,0.0,4076.0,0
855,855,0.7605816199301922,0.8,True,362.0,756.0,1.0,122.0,1
856,856,-0.5744609073792126,-0.6,False,285.0,666.0,0.0,239.0,1
857,857,0.8999407416667067,0.9,True,320.0,590.0,1.0,150.0,1
858,858,-0.6222846901446588,-0.6,False,327.0,902.0,0.0,281.0,1
859,859,0.44855731400104615,0.4,True,372.0,599.0,1.0,439.0,1
860,860,-0.3943436137818235,-0.4,False,438.0,539.0,0.0,283.0,1
861,861,-0.9811347884132666,-1.0,False,260.0,590.0,0.0,210.0,1
862,862,-0.2222350480054165,-0.2,False,286.0,554.0,0.0,1160.0,1
863,863,-0.3024012392464155,-0.3,False,408.0,948.0,0.0,594.0,1
864,864,-0.6618737253803104,-0.7,False,457.0,697.0,0.0,206.0,1
865,865,0.21575831703571824,0.2,True,343.0,990.0,1.0,2177.0,1
866,866,0.28295362443913974,0.3,True,446.0,717.0,1.0,1837.0,1
867,867,0.9636529311644095,1.0,True,398.0,890.0,1.0,102.0,1
868,868,-0.8169679268610546,-0.8,False,350.0,838.0,0.0,202.0,1
869,869,-0.37020311601391387,-0.4,False,258.0,633.0,0.0,459.0,1
870,870,0.2596774656569534,0.3,True,465.0,746.0,1.0,899.0,1
871,871,-0.9548193229574842,-1.0,False,261.0,842.0,0.0,187.0,1
872,872,-0.04065407283460032,-0.0,False,357.0,756.0,0.0,3887.0,1
873,873,-0.32788704963283344,-0.3,False,251.0,800.0,0.0,659.0,1
874,874,-0.6056612966876245,-0.6,False,386.0,943.0,0.0,351.0,1
875,875,0.2863403318868103,0.3,True,495.0,570.0,1.0,525.0,1
876,876,0.5231701900963959,0.5,True,254.0,557.0,1.0,229.0,1
877,877,-0.1700355530428097,-0.2,False,399.0,726.0,0.0,1885.0,1
878,878,0.2360483020126014,0.2,True,487.0,727.0,1.0,1136.0,1
879,879,-0.8045974896079084,-0.8,False,352.0,652.0,0.0,156.0,1
880,880,0.7236611544531057,0.7,True,293.0,564.0,1.0,243.0,1
881,881,0.5237437623793684,0.5,True,482.0,697.0,1.0,451.0,1
882,882,-0.33782257538237737,-0.3,False,281.0,615.0,0.0,864.0,1
883,883,0.2691627070676863,0.3,True,403.0,580.0,1.0,237.0,1
884,884,-0.2095308870925503,-0.2,False,281.0,727.0,0.0,622.0,1
885,885,-0.660533003376826,-0.7,False,463.0,562.0,0.0,195.0,1
886,886,-0.5884396594201218,-0.6,False,387.0,952.0,0.0,181.0,1
887,887,0.7512415376157611,0.8,True,444.0,842.0,1.0,174.0,1
888,888,-0.8679853192488776,-0.9,False,457.0,913.0,0.0,210.0,1
889,889,0.19886136898547413,0.2,True,382.0,809.0,1.0,2539.0,1
890,890,-0.6799659119634482,-0.7,False,379.0,559.0,0.0,302.0,1
891,891,-0.7969819332263062,-0.8,False,384.0,629.0,0.0,197.0,1
892,892,-0.5022769670990612,-0.5,False,441.0,837.0,0.0,652.0,1
893,893,-0.3999378934365725,-0.4,False,365.0,844.0,0.0,191.0,1
894,894,0.9268008487308412,0.9,True,451.0,869.0,1.0,140.0,1
895,895,-0.5021122546038512,-0.5,False,289.0,825.0,0.0,316.0,1
896,896,0.02727040140230419,0.0,True,304.0,589.0,1.0,4107.0,1
897,897,0.6560224457739574,0.7,True,299.0,947.0,1.0,114.0,1
898,898,0.4874340032778117,0.5,True,308.0,556.0,1.0,236.0,1
899,899,-0.601633829480676,-0.6,False,497.0,795.0,0.0,398.0,1
900,900,-0.9327567525175835,-0.9,False,489.0,619.0,0.0,142.0,1
901,901,-0.8046979225410653,-0.8,False,251.0,643.0,0.0,136.0,1
902,902,0.3621572127593429,0.4,True,318.0,662.0,1.0,200.0,1
903,903,0.39318797945100004,0.4,True,379.0,709.0,1.0,632.0,1
904,904,0.3806125126319668,0.4,True,312.0,885.0,1.0,193.0,1
905,905,0.8254010895370201,0.8,True,459.0,911.0,1.0,150.0,1
906,906,-0.6746912701745176,-0.7,False,385.0,936.0,0.0,269.0,1
907,907,-0.33747184051261225,-0.3,False,290.0,913.0,0.0,647.0,1
908,908,0.1253816960865528,0.1,True,444.0,621.0,1.0,3935.0,1
909,909,0.03226047757807371,0.0,True,482.0,607.0,1.0,3911.0,1
910,910,0.7305793520166874,0.7,True,333.0,752.0,1.0,55.0,1
911,911,-0.31697320333444057,-0.3,False,304.0,772.0,0.0,474.0,1
912,912,0.3229362140868901,0.3,True,306.0,924.0,1.0,170.0,1
913,913,-0.045383162908151586,-0.0,False,409.0,965.0,0.0,3626.0,1
914,914,0.4902619913854145,0.5,True,443.0,698.0,1.0,389.0,1
915,915,-0.9206508872968249,-0.9,False,366.0,505.0,0.0,199.0,1
916,916,0.637634720003966,0.6,True,254.0,768.0,1.0,318.0,1
917,917,-0.12521525682545898,-0.1,False,369.0,813.0,0.0,2738.0,1
918,918,-0.8105086641663024,-0.8,False,342.0,632.0,0.0,186.0,1
919,919,0.0490460158620849,0.0,True,399.0,758.0,1.0,3843.0,1
920,920,-0.8048099380806151,-0.8,False,285.0,907.0,0.0,158.0,1
921,921,0.362783103064386,0.4,True,362.0,765.0,1.0,1483.0,1
922,922,-0.6791563612030627,-0.7,False,339.0,591.0,0.0,290.0,1
923,923,-0.5534527028872731,-0.6,False,475.0,956.0,0.0,279.0,1
924,924,-0.9143686741279633,-0.9,False,260.0,921.0,0.0,199.0,1
925,925,-0.20599742002038468,-0.2,False,265.0,531.0,0.0,554.0,1
926,926,-0.5224065108406879,-0.5,False,335.0,814.0,0.0,231.0,1
927,927,-0.7394455005647427,-0.7,False,302.0,701.0,0.0,237.0,1
928,928,0.906065318526194,0.9,True,278.0,641.0,1.0,191.0,1
929,929,0.9820772483479558,1.0,True,268.0,642.0,1.0,110.0,1
930,930,0.21606176374686226,0.2,True,431.0,937.0,1.0,562.0,1
931,931,0.007605012301134639,0.0,True,401.0,814.0,0.0,3785.0,0
932,932,0.051133827129727694,0.1,True,467.0,504.0,1.0,4029.0,1
933,933,-0.43121462870904415,-0.4,False,251.0,859.0,0.0,440.0,1
934,934,-0.4646445867209201,-0.5,False,415.0,935.0,0.0,380.0,1
935,935,0.9035721815222963,0.9,True,377.0,795.0,1.0,108.0,1
936,936,-0.6474514461842265,-0.6,False,393.0,815.0,0.0,92.0,1
937,937,0.34214732654402247,0.3,True,251.0,959.0,1.0,800.0,1
938,938,-0.12377080841493204,-0.1,False,413.0,784.0,0.0,3803.0,1
939,939,0.9783073932906945,1.0,True,277.0,965.0,1.0,128.0,1
940,940,0.05460857979746114,0.1,True,486.0,816.0,1.0,3698.0,1
941,941,-0.6475838803055176,-0.6,False,490.0,733.0,0.0,177.0,1
942,942,0.44609116896104384,0.4,True,374.0,517.0,1.0,329.0,1
943,943,-0.599896289806954,-0.6,False,342.0,699.0,0.0,189.0,1
944,944,0.21876779251897793,0.2,True,403.0,754.0,1.0,1213.0,1
945,945,-0.5044852051860356,-0.5,False,401.0,580.0,0.0,379.0,1
946,946,0.2720170887546103,0.3,True,494.0,704.0,1.0,1072.0,1
947,947,-0.8721172264625761,-0.9,False,319.0,506.0,0.0,185.0,1
948,948,-0.2685028517062529,-0.3,False,486.0,711.0,0.0,813.0,1
949,949,-0.8830627854075379,-0.9,False,282.0,771.0,0.0,107.0,1
950,950,0.7286470055909935,0.7,True,474.0,572.0,1.0,174.0,1
951,951,0.8901998449886726,0.9,True,362.0,590.0,1.0,128.0,1
952,952,-0.7308321707563759,-0.7,False,445.0,777.0,0.0,368.0,1
953,953,0.1789029775254094,0.2,True,371.0,914.0,1.0,2305.0,1
954,954,0.5900374811051878,0.6,True,467.0,601.0,1.0,252.0,1
955,955,0.4309366695298076,0.4,True,299.0,871.0,1.0,240.0,1
956,956,-0.3158894973532491,-0.3,False,343.0,564.0,0.0,473.0,1
957,957,-0.35243516638878436,-0.4,False,462.0,664.0,0.0,464.0,1
958,958,-0.6656722428619448,-0.7,False,392.0,614.0,0.0,264.0,1
959,959,-0.396967528003336,-0.4,False,372.0,884.0,0.0,224.0,1
960,960,-0.9610128776315736,-1.0,False,467.0,596.0,0.0,137.0,1
961,961,0.12685598267881515,0.1,True,296.0,913.0,1.0,1011.0,1
962,962,0.9674347890785564,1.0,True,412.0,605.0,1.0,173.0,1
963,963,-0.12060195133534113,-0.1,False,475.0,650.0,0.0,3875.0,1
964,964,0.45821419074206426,0.5,True,266.0,887.0,1.0,347.0,1
965,965,0.5258513714751378,0.5,True,268.0,754.0,1.0,248.0,1
966,966,-0.39919318761265155,-0.4,False,459.0,817.0,0.0,504.0,1
967,967,-0.9164666376541244,-0.9,False,379.0,591.0,0.0,190.0,1
968,968,0.2797932860602388,0.3,True,462.0,898.0,1.0,360.0,1
969,969,-0.9765480516838161,-1.0,False,396.0,734.0,0.0,230.0,1
970,970,-0.12579810295199545,-0.1,False,373.0,882.0,0.0,3745.0,1
971,971,0.4216398662695393,0.4,True,326.0,799.0,1.0,245.0,1
972,972,0.6287444433065847,0.6,True,441.0,554.0,1.0,265.0,1
973,973,-0.8811569729006312,-0.9,False,459.0,938.0,0.0,223.0,1
974,974,0.15382450287008909,0.2,True,352.0,804.0,1.0,1004.0,1
975,975,0.04644547111089525,0.0,True,301.0,979.0,1.0,3720.0,1
976,976,-0.9929519123684925,-1.0,False,471.0,658.0,0.0,201.0,1
977,977,0.3142348556330632,0.3,True,451.0,853.0,1.0,646.0,1
978,978,0.44856914718344876,0.4,True,379.0,738.0,1.0,623.0,1
979,979,0.819989123038378,0.8,True,428.0,937.0,1.0,205.0,1
980,980,-0.7444019341349968,-0.7,False,412.0,735.0,0.0,243.0,1
981,981,0.30691485882148073,0.3,True,463.0,632.0,1.0,415.0,1
982,982,0.24952629048532593,0.2,True,333.0,868.0,1.0,649.0,1
983,983,-0.6597322265929988,-0.7,False,349.0,850.0,0.0,251.0,1
984,984,-0.24450504422144181,-0.2,False,368.0,890.0,0.0,732.0,1
985,985,0.16303703544535253,0.2,True,270.0,871.0,1.0,3459.0,1
986,986,0.8325801765341925,0.8,True,320.0,919.0,1.0,191.0,1
987,987,-0.9945163338115419,-1.0,False,484.0,886.0,0.0,160.0,1
988,988,0.33517343568519853,0.3,True,352.0,997.0,1.0,841.0,1
989,989,-0.010649628277796142,-0.0,False,375.0,951.0,1.0,3674.0,0
990,990,0.1646958352414012,0.2,True,401.0,893.0,1.0,2586.0,1
991,991,-0.06365959488403683,-0.1,False,385.0,547.0,0.0,4068.0,1
992,992,0.4736307733687539,0.5,True,428.0,949.0,1.0,213.0,1
993,993,-0.4988013262119362,-0.5,False,442.0,528.0,0.0,350.0,1
994,994,0.09728171346732317,0.1,True,280.0,771.0,0.0,3949.0,0
995,995,0.10696939912497849,0.1,True,424.0,919.0,1.0,3657.0,1
996,996,-0.7123378335974795,-0.7,False,464.0,817.0,0.0,159.0,1
997,997,0.004294741619112585,0.0,True,315.0,824.0,0.0,3861.0,0
998,998,-0.991673956336766,-1.0,False,484.0,773.0,0.0,153.0,1
999,999,0.29493041135017384,0.3,True,497.0,677.0,1.0,676.0,1
1000,1000,0.3530139160463823,0.4,True,259.0,902.0,1.0,659.0,1
1001,1001,0.29793518826387744,0.3,True,412.0,721.0,1.0,1127.0,1
1002,1002,0.7097671640407017,0.7,True,429.0,879.0,1.0,132.0,1
1003,1003,0.06540637870269461,0.1,True,462.0,936.0,1.0,2272.0,1
1004,1004,-0.8334551310449418,-0.8,False,395.0,507.0,0.0,108.0,1
1005,1005,0.5832901382170814,0.6,True,451.0,969.0,1.0,190.0,1
1006,1006,0.5854273206742937,0.6,True,402.0,594.0,1.0,174.0,1
1007,1007,0.6456736937820979,0.6,True,341.0,748.0,1.0,321.0,1
1008,1008,-0.7827236390302144,-0.8,False,397.0,883.0,0.0,170.0,1
1009,1009,-0.24980414119292105,-0.2,False,263.0,657.0,0.0,790.0,1
1010,1010,-0.5575258997085535,-0.6,False,400.0,512.0,0.0,268.0,1
1011,1011,-0.5941252536122821,-0.6,False,342.0,805.0,0.0,483.0,1
1012,1012,0.7952601597699762,0.8,True,430.0,795.0,1.0,205.0,1
1013,1013,-0.3673621981660191,-0.4,False,339.0,959.0,0.0,992.0,1
1014,1014,-0.3279984262303557,-0.3,False,353.0,693.0,0.0,354.0,1
1015,1015,0.41899244376132794,0.4,True,387.0,611.0,1.0,402.0,1
1016,1016,-0.603324233533028,-0.6,False,304.0,571.0,0.0,185.0,1
1017,1017,0.4466824426378093,0.4,True,415.0,933.0,1.0,292.0,1
1018,1018,0.987851886874074,1.0,True,422.0,783.0,1.0,125.0,1
1019,1019,0.12091292794565289,0.1,True,448.0,771.0,1.0,3781.0,1
1020,1020,0.9877392569916688,1.0,True,399.0,862.0,1.0,139.0,1
1021,1021,0.6920957927688958,0.7,True,408.0,865.0,1.0,157.0,1
1022,1022,0.939827880869708,0.9,True,384.0,959.0,1.0,97.0,1
1023,1023,-0.07546395496185587,-0.1,False,449.0,684.0,0.0,3867.0,1
1024,1024,-0.25541307833946014,-0.3,False,475.0,989.0,0.0,756.0,1
1025,1025,0.9727392303003575,1.0,True,299.0,787.0,1.0,164.0,1
1026,1026,0.908696259027862,0.9,True,364.0,804.0,1.0,152.0,1
1027,1027,-0.9427173807400744,-0.9,False,329.0,932.0,0.0,159.0,1
1028,1028,0.40060904538159514,0.4,True,498.0,829.0,1.0,423.0,1
1029,1029,0.7601004996605027,0.8,True,459.0,839.0,1.0,182.0,1
1030,1030,0.3325593175846846,0.3,True,426.0,884.0,1.0,300.0,1
1031,1031,-0.23496546609534907,-0.2,False,269.0,778.0,0.0,953.0,1
1032,1032,-0.059377018093450085,-0.1,False,419.0,691.0,0.0,3890.0,1
1033,1033,-0.8544391973835068,-0.9,False,453.0,723.0,0.0,294.0,1
1034,1034,-0.7437961649141613,-0.7,False,387.0,830.0,0.0,183.0,1
1035,1035,-0.46897525559517206,-0.5,False,394.0,923.0,0.0,333.0,1
1036,1036,0.16713129298462404,0.2,True,318.0,646.0,1.0,2056.0,1
1037,1037,0.5705772695048543,0.6,True,465.0,589.0,1.0,256.0,1
1038,1038,-0.012673711934059861,-0.0,False,421.0,721.0,0.0,3858.0,1
1039,1039,-0.41570720932585337,-0.4,False,354.0,886.0,0.0,680.0,1
1040,1040,0.5790727860295091,0.6,True,464.0,973.0,1.0,193.0,1
1041,1041,-0.05546841844232775,-0.1,False,444.0,543.0,0.0,4013.0,1
1042,1042,-0.051020704028406305,-0.1,False,295.0,752.0,0.0,3953.0,1
1043,1043,0.944985733393461,0.9,True,462.0,794.0,1.0,104.0,1
1044,1044,0.2633300888386445,0.3,True,393.0,629.0,1.0,638.0,1
1045,1045,-0.4080643099719834,-0.4,False,483.0,563.0,0.0,514.0,1
1046,1046,0.04874467077389766,0.0,True,308.0,977.0,0.0,3715.0,0
1047,1047,-0.31128676806986255,-0.3,False,412.0,587.0,0.0,451.0,1
1048,1048,0.4361002664587088,0.4,True,469.0,915.0,1.0,476.0,1
1049,1049,0.5080310571455975,0.5,True,427.0,987.0,1.0,286.0,1
1050,1050,0.0748128956148768,0.1,True,398.0,777.0,1.0,3825.0,1
1051,1051,0.8838761211400905,0.9,True,472.0,559.0,1.0,89.0,1
1052,1052,0.7197410420032773,0.7,True,355.0,625.0,1.0,120.0,1
1053,1053,0.3442958470278996,0.3,True,324.0,911.0,1.0,505.0,1
1054,1054,-0.5567990026054168,-0.6,False,357.0,613.0,0.0,370.0,1
1055,1055,0.567690628797257,0.6,True,333.0,821.0,1.0,376.0,1
1056,1056,0.3105172116470818,0.3,True,265.0,856.0,1.0,699.0,1
1057,1057,0.539587852025297,0.5,True,342.0,807.0,1.0,271.0,1
1058,1058,0.20918039402744815,0.2,True,258.0,989.0,1.0,873.0,1
1059,1059,0.041007616482638065,0.0,True,474.0,802.0,1.0,3724.0,1
1060,1060,-0.29636134274959414,-0.3,False,472.0,705.0,0.0,763.0,1
1061,1061,-0.9942588294903756,-1.0,False,373.0,883.0,0.0,174.0,1
1062,1062,-0.17827740482445442,-0.2,False,408.0,600.0,0.0,1522.0,1
1063,1063,-0.9784043960073243,-1.0,False,401.0,669.0,0.0,200.0,1
1064,1064,-0.5488079325918465,-0.5,False,484.0,822.0,0.0,304.0,1
1065,1065,-0.8684208388717916,-0.9,False,261.0,852.0,0.0,237.0,1
1066,1066,-0.07299137034183767,-0.1,False,271.0,622.0,0.0,3747.0,1
1067,1067,-0.9982042533560502,-1.0,False,348.0,570.0,0.0,202.0,1
1068,1068,-0.2360120718459815,-0.2,False,358.0,842.0,0.0,1170.0,1
1069,1069,0.2988105654484987,0.3,True,287.0,674.0,1.0,919.0,1
1070,1070,0.8457757398594461,0.8,True,283.0,924.0,1.0,223.0,1
1071,1071,0.6187870431022757,0.6,True,467.0,620.0,1.0,263.0,1
1072,1072,-0.9714715378669696,-1.0,False,388.0,895.0,0.0,197.0,1
1073,1073,-0.20010284259299138,-0.2,False,367.0,883.0,0.0,2140.0,1
1074,1074,-0.7221601795069574,-0.7,False,471.0,710.0,0.0,159.0,1
1075,1075,-0.19686993694761767,-0.2,False,417.0,569.0,0.0,4014.0,1
1076,1076,-0.40620369586635374,-0.4,False,374.0,606.0,0.0,410.0,1
1077,1077,0.9155590948260497,0.9,True,390.0,784.0,1.0,56.0,1
1078,1078,0.38664750795891534,0.4,True,455.0,549.0,1.0,556.0,1
1079,1079,0.9799355168661519,1.0,True,444.0,771.0,1.0,95.0,1
1080,1080,-0.14497577335143808,-0.1,False,490.0,866.0,0.0,3274.0,1
1081,1081,0.5487299130018923,0.5,True,343.0,596.0,1.0,221.0,1
1082,1082,-0.0008136688323689967,-0.0,False,384.0,772.0,1.0,3844.0,0
1083,1083,0.917133891547165,0.9,True,424.0,759.0,1.0,167.0,1
1084,1084,0.7366077933765871,0.7,True,413.0,856.0,1.0,141.0,1
1085,1085,-0.03725537000289103,-0.0,False,435.0,978.0,0.0,3587.0,1
1086,1086,-0.26624806474100304,-0.3,False,256.0,963.0,0.0,601.0,1
1087,1087,0.4271750883000216,0.4,True,396.0,945.0,1.0,759.0,1
1088,1088,0.779147485834266,0.8,True,497.0,945.0,1.0,158.0,1
1089,1089,-0.9749913048716881,-1.0,False,418.0,539.0,0.0,233.0,1
1090,1090,-0.13009097093207056,-0.1,False,328.0,709.0,0.0,3963.0,1
1091,1091,-0.26797590681360606,-0.3,False,292.0,798.0,0.0,1710.0,1
1092,1092,0.8445420869294133,0.8,True,451.0,747.0,1.0,152.0,1
1093,1093,0.7352543390142368,0.7,True,371.0,560.0,1.0,129.0,1
1094,1094,0.05511743607319941,0.1,True,397.0,889.0,0.0,3714.0,0
1095,1095,0.9225038541098791,0.9,True,345.0,763.0,1.0,122.0,1
1096,1096,-0.37659856111677614,-0.4,False,316.0,901.0,0.0,323.0,1
1097,1097,0.7945923361459217,0.8,True,469.0,537.0,1.0,114.0,1
1098,1098,0.5467504049016789,0.5,True,364.0,570.0,1.0,196.0,1
1099,1099,-0.6653020927423834,-0.7,False,411.0,692.0,0.0,227.0,1
1100,1100,0.6408423815032338,0.6,True,399.0,973.0,1.0,338.0,1
1101,1101,0.2089376718792706,0.2,True,475.0,656.0,1.0,1209.0,1
1102,1102,-0.8213129527629377,-0.8,False,446.0,641.0,0.0,223.0,1
1103,1103,0.9928420504322899,1.0,True,289.0,858.0,1.0,153.0,1
1104,1104,-0.41602234231916824,-0.4,False,421.0,893.0,0.0,486.0,1
1105,1105,0.6937223997004223,0.7,True,468.0,536.0,1.0,156.0,1
1106,1106,0.34107030140989725,0.3,True,453.0,642.0,1.0,485.0,1
1107,1107,0.381743950035748,0.4,True,262.0,714.0,1.0,454.0,1
1108,1108,-0.25909596610767704,-0.3,False,339.0,813.0,0.0,308.0,1
1109,1109,0.221412974746509,0.2,True,350.0,678.0,1.0,1182.0,1
1110,1110,0.6587138592981083,0.7,True,392.0,554.0,1.0,244.0,1
1111,1111,0.6962530404638112,0.7,True,278.0,821.0,1.0,211.0,1
1112,1112,0.06530888193073436,0.1,True,295.0,831.0,1.0,3874.0,1
1113,1113,-0.09142819359767707,-0.1,False,384.0,661.0,0.0,3955.0,1
1114,1114,0.43416365427435966,0.4,True,478.0,879.0,1.0,143.0,1
1115,1115,0.8198990457890998,0.8,True,443.0,730.0,1.0,117.0,1
1116,1116,0.14894788285933713,0.1,True,497.0,663.0,1.0,680.0,1
1117,1117,-0.1396475101527208,-0.1,False,481.0,854.0,0.0,1845.0,1
1118,1118,-0.09612631868937149,-0.1,False,317.0,912.0,0.0,801.0,1
1119,1119,0.5127897473056391,0.5,True,308.0,951.0,1.0,341.0,1
1120,1120,-0.08694264853698308,-0.1,False,428.0,579.0,0.0,3993.0,1
1121,1121,0.36509991628236227,0.4,True,260.0,620.0,1.0,290.0,1
1122,1122,-0.17724746837244054,-0.2,False,257.0,756.0,0.0,2527.0,1
1123,1123,-0.2575818110346082,-0.3,False,336.0,981.0,0.0,903.0,1
1124,1124,0.5191434422017889,0.5,True,289.0,563.0,1.0,338.0,1
1125,1125,-0.8334674414426284,-0.8,False,356.0,726.0,0.0,158.0,1
1126,1126,0.1781371592713159,0.2,True,498.0,556.0,1.0,2066.0,1
1127,1127,0.37680505289798183,0.4,True,405.0,967.0,1.0,198.0,1
1128,1128,0.5067293861508826,0.5,True,283.0,714.0,1.0,253.0,1
1129,1129,0.581261300293582,0.6,True,342.0,573.0,1.0,255.0,1
1130,1130,0.48946251755505643,0.5,True,400.0,824.0,1.0,356.0,1
1131,1131,-0.41244670970412534,-0.4,False,337.0,789.0,0.0,614.0,1
1132,1132,-0.7484823217114902,-0.7,False,375.0,761.0,0.0,174.0,1
1133,1133,0.49823535998360713,0.5,True,431.0,659.0,1.0,340.0,1
1134,1134,0.15760155436504286,0.2,True,492.0,817.0,1.0,2061.0,1
1135,1135,0.32582545945792796,0.3,True,304.0,516.0,1.0,460.0,1
1136,1136,0.32487336018029933,0.3,True,327.0,810.0,1.0,663.0,1
1137,1137,0.16387622502433863,0.2,True,303.0,602.0,1.0,2125.0,1
1138,1138,0.1950171831690748,0.2,True,479.0,863.0,1.0,3658.0,1
1139,1139,-0.7804190522899903,-0.8,False,455.0,513.0,0.0,162.0,1
1140,1140,-0.4732089048085537,-0.5,False,331.0,659.0,0.0,390.0,1
1141,1141,0.1142156422216778,0.1,True,470.0,893.0,1.0,2637.0,1
1142,1142,0.47876035683163565,0.5,True,272.0,701.0,1.0,317.0,1
1143,1143,0.49022851497284514,0.5,True,395.0,820.0,1.0,315.0,1
1144,1144,-0.9990073802425221,-1.0,False,337.0,718.0,0.0,165.0,1
1145,1145,0.6166093407335014,0.6,True,391.0,965.0,1.0,244.0,1
1146,1146,-0.5971529247035252,-0.6,False,488.0,926.0,0.0,196.0,1
1147,1147,0.502447773989134,0.5,True,358.0,906.0,1.0,236.0,1
1148,1148,0.920867491247978,0.9,True,373.0,591.0,1.0,196.0,1
1149,1149,-0.9302927042736076,-0.9,False,442.0,702.0,0.0,226.0,1
1150,1150,0.8416498097121883,0.8,True,303.0,867.0,1.0,80.0,1
1151,1151,0.9573763598779972,1.0,True,392.0,888.0,1.0,150.0,1
1152,1152,0.7514639601199449,0.8,True,423.0,811.0,1.0,166.0,1
1153,1153,0.9585222836967102,1.0,True,343.0,523.0,1.0,254.0,1
1154,1154,-0.5372918458367644,-0.5,False,497.0,812.0,0.0,481.0,1
1155,1155,-0.2956721559741686,-0.3,False,458.0,918.0,0.0,1194.0,1
1156,1156,0.1104736801545203,0.1,True,442.0,995.0,1.0,3563.0,1
1157,1157,-0.18709651880294453,-0.2,False,268.0,593.0,0.0,2599.0,1
1158,1158,-0.8881126778753647,-0.9,False,303.0,576.0,0.0,201.0,1
1159,1159,0.6021873429814493,0.6,True,446.0,885.0,1.0,269.0,1
1160,1160,0.5136458270744644,0.5,True,294.0,664.0,1.0,352.0,1
1161,1161,-0.14720862417554192,-0.1,False,469.0,760.0,0.0,3771.0,1
1162,1162,-0.8505664532761241,-0.9,False,408.0,728.0,0.0,144.0,1
1163,1163,-0.20516855139105994,-0.2,False,481.0,599.0,0.0,2510.0,1
1164,1164,0.5451093129427764,0.5,True,312.0,517.0,1.0,221.0,1
1165,1165,-0.3662054912689643,-0.4,False,487.0,573.0,0.0,880.0,1
1166,1166,0.648284375199637,0.6,True,387.0,885.0,1.0,198.0,1
1167,1167,-0.13234000409777225,-0.1,False,255.0,907.0,0.0,3838.0,1
1168,1168,0.5961252481505388,0.6,True,477.0,931.0,1.0,282.0,1
1169,1169,-0.837772166546354,-0.8,False,367.0,786.0,0.0,207.0,1
1170,1170,0.039842063093591173,0.0,True,455.0,758.0,1.0,3787.0,1
1171,1171,-0.09253855793738941,-0.1,False,314.0,506.0,0.0,3090.0,1
1172,1172,-0.4536092833118126,-0.5,False,297.0,882.0,0.0,451.0,1
1173,1173,0.2933584672558458,0.3,True,296.0,930.0,1.0,1554.0,1
1174,1174,-0.3699581684451536,-0.4,False,271.0,730.0,0.0,359.0,1
1175,1175,-0.2991453398366406,-0.3,False,496.0,745.0,0.0,359.0,1
1176,1176,-0.39015310072470766,-0.4,False,469.0,957.0,0.0,364.0,1
1177,1177,0.038056023857492516,0.0,True,443.0,671.0,1.0,3886.0,1
1178,1178,0.8260973792139519,0.8,True,478.0,936.0,1.0,156.0,1
1179,1179,0.8715406472155567,0.9,True,385.0,796.0,1.0,169.0,1
1180,1180,-0.3644390272379201,-0.4,False,428.0,829.0,0.0,493.0,1
1181,1181,-0.7578062220087449,-0.8,False,378.0,879.0,0.0,303.0,1
1182,1182,-0.927064328224352,-0.9,False,282.0,993.0,0.0,45.0,1
1183,1183,-0.35474811236798787,-0.4,False,496.0,853.0,0.0,621.0,1
1184,1184,0.70372383982238,0.7,True,341.0,508.0,1.0,231.0,1
1185,1185,0.508321701026142,0.5,True,394.0,523.0,1.0,133.0,1
1186,1186,0.4934978711414615,0.5,True,376.0,912.0,1.0,142.0,1
1187,1187,-0.4546945492645711,-0.5,False,324.0,592.0,0.0,224.0,1
1188,1188,0.712576927682216,0.7,True,436.0,853.0,1.0,261.0,1
1189,1189,-0.48485472638685656,-0.5,False,264.0,789.0,0.0,337.0,1
1190,1190,-0.03852450636993798,-0.0,False,441.0,745.0,0.0,3814.0,1
1191,1191,-0.20099556823124387,-0.2,False,258.0,816.0,0.0,166.0,1
1192,1192,0.8228933960917522,0.8,True,356.0,967.0,1.0,247.0,1
1193,1193,0.31254850205208373,0.3,True,477.0,766.0,1.0,527.0,1
1194,1194,-0.03734102795097338,-0.0,False,381.0,628.0,0.0,3991.0,1
1195,1195,-0.37576094252680603,-0.4,False,390.0,728.0,0.0,572.0,1
1196,1196,0.9951925665579899,1.0,True,281.0,544.0,1.0,135.0,1
1197,1197,0.08237011767791413,0.1,True,399.0,871.0,1.0,3730.0,1
1198,1198,-0.4863193157660217,-0.5,False,300.0,994.0,0.0,346.0,1
1199,1199,-0.588295749894097,-0.6,False,319.0,893.0,0.0,288.0,1
1200,1200,-0.9248031486510957,-0.9,False,472.0,719.0,0.0,159.0,1
1201,1201,0.6534163701016542,0.7,True,473.0,768.0,1.0,149.0,1
1202,1202,0.020707692640225428,0.0,True,448.0,941.0,1.0,3611.0,1
1203,1203,0.20132719434376423,0.2,True,279.0,835.0,1.0,2626.0,1
1204,1204,0.3028912464128428,0.3,True,436.0,626.0,1.0,548.0,1
1205,1205,0.1618681777578046,0.2,True,458.0,798.0,1.0,3744.0,1
1206,1206,-0.6695906023309859,-0.7,False,485.0,931.0,0.0,204.0,1
1207,1207,0.3084801166781588,0.3,True,451.0,719.0,1.0,390.0,1
1208,1208,0.23578618681080266,0.2,True,310.0,887.0,1.0,663.0,1
1209,1209,-0.9280152274682327,-0.9,False,460.0,957.0,0.0,203.0,1
1210,1210,0.6672247145793611,0.7,True,346.0,875.0,1.0,179.0,1
1211,1211,-0.2349453678946578,-0.2,False,326.0,778.0,0.0,1166.0,1
1212,1212,-0.07652893502653568,-0.1,False,372.0,726.0,0.0,3902.0,1
1213,1213,0.7676529777677081,0.8,True,277.0,775.0,1.0,78.0,1
1214,1214,-0.7205749717318617,-0.7,False,294.0,963.0,0.0,243.0,1
1215,1215,0.3926428436824645,0.4,True,412.0,585.0,1.0,303.0,1
1216,1216,-0.12564587584571818,-0.1,False,441.0,819.0,0.0,3740.0,1
1217,1217,0.5704402035140057,0.6,True,456.0,970.0,1.0,184.0,1
1218,1218,0.2922704923840642,0.3,True,374.0,730.0,1.0,586.0,1
1219,1219,0.35078398949365797,0.4,True,458.0,548.0,1.0,284.0,1
1220,1220,-0.7245063461559553,-0.7,False,296.0,683.0,0.0,181.0,1
1221,1221,0.6226833922999817,0.6,True,444.0,677.0,1.0,169.0,1
1222,1222,0.027126338342713607,0.0,True,266.0,998.0,0.0,3736.0,0
1223,1223,0.7995590810348034,0.8,True,441.0,602.0,1.0,177.0,1
1224,1224,0.2700991647290034,0.3,True,381.0,717.0,1.0,932.0,1
1225,1225,-0.36412770328579813,-0.4,False,315.0,692.0,0.0,473.0,1
1226,1226,0.33576457027558804,0.3,True,288.0,878.0,1.0,314.0,1
1227,1227,0.043537425211703784,0.0,True,276.0,699.0,1.0,4025.0,1
1228,1228,0.3958075806885566,0.4,True,439.0,853.0,1.0,478.0,1
1229,1229,-0.7312109985321571,-0.7,False,441.0,844.0,0.0,325.0,1
1230,1230,0.4358311824216441,0.4,True,338.0,849.0,1.0,203.0,1
1231,1231,-0.6295675322965155,-0.6,False,387.0,851.0,0.0,322.0,1
1232,1232,-0.7126469975912841,-0.7,False,379.0,915.0,0.0,276.0,1
1233,1233,-0.5827282739718183,-0.6,False,340.0,985.0,0.0,155.0,1
1234,1234,0.05733340900049555,0.1,True,327.0,845.0,0.0,3828.0,0
1235,1235,-0.7350249604643866,-0.7,False,499.0,967.0,0.0,94.0,1
1236,1236,0.16441856678952416,0.2,True,341.0,569.0,1.0,1160.0,1
1237,1237,0.8608392466789418,0.9,True,285.0,702.0,1.0,73.0,1
1238,1238,-0.7432140479153102,-0.7,False,473.0,911.0,0.0,196.0,1
1239,1239,-0.8733474045646841,-0.9,False,498.0,912.0,0.0,170.0,1
1240,1240,0.12100221235299746,0.1,True,421.0,602.0,1.0,3977.0,1
1241,1241,-0.30806899645660346,-0.3,False,327.0,823.0,0.0,970.0,1
1242,1242,0.36898986312149407,0.4,True,347.0,940.0,1.0,473.0,1
1243,1243,-0.0025704171807887644,-0.0,False,269.0,676.0,1.0,4055.0,0
1244,1244,0.9033068330394478,0.9,True,358.0,814.0,1.0,98.0,1
1245,1245,0.12138931287355192,0.1,True,259.0,652.0,1.0,4089.0,1
1246,1246,0.4275463526555152,0.4,True,386.0,800.0,1.0,204.0,1
1247,1247,-0.08891525992760085,-0.1,False,440.0,544.0,0.0,4016.0,1
1248,1248,0.970778558414173,1.0,True,350.0,588.0,1.0,152.0,1
1249,1249,0.42735777134627195,0.4,True,329.0,735.0,1.0,446.0,1
1250,1250,-0.47751060219425057,-0.5,False,398.0,695.0,0.0,437.0,1
1251,1251,0.007039282715963546,0.0,True,361.0,529.0,0.0,4110.0,0
1252,1252,0.0696458998209859,0.1,True,450.0,889.0,0.0,3661.0,0
1253,1253,-0.5042528207629073,-0.5,False,374.0,709.0,0.0,287.0,1
1254,1254,-0.2470508819917463,-0.2,False,433.0,800.0,0.0,1397.0,1
1255,1255,-0.42386529787129823,-0.4,False,330.0,766.0,0.0,184.0,1
1256,1256,0.14886920780671442,0.1,True,336.0,656.0,1.0,1618.0,1
1257,1257,0.4445050818595293,0.4,True,263.0,734.0,1.0,263.0,1
1258,1258,0.40324750389679465,0.4,True,471.0,841.0,1.0,558.0,1
1259,1259,-0.5140779773579331,-0.5,False,467.0,841.0,0.0,392.0,1
1260,1260,-0.49137932445756016,-0.5,False,476.0,967.0,0.0,337.0,1
1261,1261,-0.02775427567411226,-0.0,False,410.0,810.0,0.0,3780.0,1
1262,1262,-0.47772472249748343,-0.5,False,396.0,901.0,0.0,653.0,1
1263,1263,0.2816145959443821,0.3,True,284.0,556.0,1.0,470.0,1
1264,1264,0.7612783083967958,0.8,True,259.0,518.0,1.0,173.0,1
1265,1265,-0.89821986610232,-0.9,False,334.0,579.0,0.0,257.0,1
1266,1266,-0.6719725737107289,-0.7,False,344.0,722.0,0.0,344.0,1
1267,1267,0.4163314806660152,0.4,True,397.0,904.0,1.0,549.0,1
1268,1268,-0.7032254713426098,-0.7,False,477.0,928.0,0.0,145.0,1
1269,1269,-0.11712107326265953,-0.1,False,260.0,774.0,0.0,2776.0,1
1270,1270,0.3922922243503373,0.4,True,336.0,827.0,1.0,417.0,1
1271,1271,-0.2728862758667836,-0.3,False,363.0,935.0,0.0,732.0,1
1272,1272,0.27633808971085405,0.3,True,378.0,656.0,1.0,476.0,1
1273,1273,-0.7789376759620712,-0.8,False,382.0,782.0,0.0,126.0,1
1274,1274,-0.9061536851249941,-0.9,False,325.0,519.0,0.0,136.0,1
1275,1275,0.576691316588809,0.6,True,429.0,805.0,1.0,286.0,1
1276,1276,-0.28587610334541247,-0.3,False,342.0,788.0,0.0,980.0,1
1277,1277,0.9662042452894493,1.0,True,483.0,991.0,1.0,126.0,1
1278,1278,-0.4707077778273139,-0.5,False,346.0,593.0,0.0,331.0,1
1279,1279,-0.6938847160083645,-0.7,False,492.0,908.0,0.0,260.0,1
1280,1280,0.8165935793949968,0.8,True,378.0,871.0,1.0,91.0,1
1281,1281,0.5856602724168898,0.6,True,314.0,830.0,1.0,166.0,1
1282,1282,0.3004470288987777,0.3,True,458.0,506.0,1.0,296.0,1
1283,1283,0.22065995989726983,0.2,True,371.0,979.0,1.0,1910.0,1
1284,1284,0.04862063894074131,0.0,True,323.0,993.0,1.0,3684.0,1
1285,1285,-0.11263123780182083,-0.1,False,280.0,717.0,0.0,4003.0,1
1286,1286,-0.12546051003636793,-0.1,False,441.0,840.0,0.0,3719.0,1
1287,1287,0.7610271292092543,0.8,True,399.0,856.0,1.0,115.0,1
1288,1288,-0.23674649118251323,-0.2,False,423.0,843.0,0.0,1834.0,1
1289,1289,-0.1347978896368054,-0.1,False,466.0,606.0,0.0,3928.0,1
1290,1290,0.2355288404526008,0.2,True,331.0,681.0,1.0,2128.0,1
1291,1291,-0.28128674433992074,-0.3,False,383.0,579.0,0.0,548.0,1
1292,1292,0.9923446026921385,1.0,True,440.0,850.0,1.0,130.0,1
1293,1293,0.9674675487457387,1.0,True,382.0,945.0,1.0,193.0,1
1294,1294,0.22235862802808604,0.2,True,336.0,841.0,1.0,763.0,1
1295,1295,0.26734389773610756,0.3,True,268.0,744.0,1.0,768.0,1
1296,1296,-0.4020291497479953,-0.4,False,399.0,808.0,0.0,453.0,1
1297,1297,-0.7434195089168403,-0.7,False,460.0,782.0,0.0,218.0,1
1298,1298,-0.12454354506226006,-0.1,False,328.0,609.0,0.0,4063.0,1
1299,1299,0.23361494212311307,0.2,True,462.0,543.0,1.0,1235.0,1
1300,1300,-0.48892022013276115,-0.5,False,357.0,699.0,0.0,784.0,1
1301,1301,0.7447277776690446,0.7,True,461.0,758.0,1.0,171.0,1
1302,1302,-0.511402949524328,-0.5,False,479.0,557.0,0.0,414.0,1
1303,1303,-0.6686782499132471,-0.7,False,352.0,765.0,0.0,273.0,1
1304,1304,-0.04910312718576293,-0.0,False,465.0,622.0,0.0,3913.0,1
1305,1305,-0.031676241814466044,-0.0,False,272.0,557.0,1.0,4171.0,0
1306,1306,0.8371853567204866,0.8,True,425.0,503.0,1.0,242.0,1
1307,1307,-0.004585706060438843,-0.0,False,425.0,701.0,0.0,3874.0,1
1308,1308,0.8382253260079406,0.8,True,339.0,933.0,1.0,68.0,1
1309,1309,-0.6594419717851947,-0.7,False,494.0,769.0,0.0,287.0,1
1310,1310,0.7036896785194156,0.7,True,492.0,545.0,1.0,173.0,1
1311,1311,-0.6376101505637926,-0.6,False,314.0,898.0,0.0,238.0,1
1312,1312,0.23646517610512507,0.2,True,425.0,844.0,1.0,641.0,1
1313,1313,0.15096139506579043,0.2,True,260.0,972.0,1.0,2138.0,1
1314,1314,-0.37612230538000735,-0.4,False,357.0,557.0,0.0,426.0,1
1315,1315,0.6508466307564871,0.7,True,400.0,641.0,1.0,159.0,1
1316,1316,0.3040551629790462,0.3,True,496.0,522.0,1.0,522.0,1
1317,1317,-0.21855298440078652,-0.2,False,252.0,598.0,0.0,890.0,1
1318,1318,0.08451628963138558,0.1,True,300.0,931.0,1.0,3769.0,1
1319,1319,-0.6338645496374895,-0.6,False,445.0,526.0,0.0,329.0,1
1320,1320,-0.23832149441350792,-0.2,False,420.0,773.0,0.0,417.0,1
1321,1321,-0.7278577373404991,-0.7,False,419.0,539.0,0.0,292.0,1
1322,1322,-0.35525446516025316,-0.4,False,290.0,677.0,0.0,453.0,1
1323,1323,-0.5965590070309799,-0.6,False,488.0,558.0,0.0,224.0,1
1324,1324,0.33596439843355763,0.3,True,421.0,639.0,1.0,1540.0,1
1325,1325,0.017705628351204705,0.0,True,303.0,808.0,0.0,3889.0,0
1326,1326,-0.28667659640512433,-0.3,False,252.0,859.0,0.0,809.0,1
1327,1327,0.9654883822102469,1.0,True,364.0,983.0,1.0,153.0,1
1328,1328,0.05350083931183769,0.1,True,374.0,896.0,1.0,3730.0,1
1329,1329,0.562488727038569,0.6,True,362.0,652.0,1.0,86.0,1
1330,1330,0.12217579784811794,0.1,True,330.0,531.0,1.0,4139.0,1
1331,1331,0.6061032916953073,0.6,True,356.0,577.0,1.0,177.0,1
1332,1332,-0.604373955704556,-0.6,False,290.0,893.0,0.0,357.0,1
1333,1333,-0.08693072596706797,-0.1,False,365.0,741.0,0.0,3494.0,1
1334,1334,-0.4407449850677052,-0.4,False,495.0,943.0,0.0,872.0,1
1335,1335,0.10859080173143543,0.1,True,381.0,976.0,1.0,3643.0,1
1336,1336,-0.9773144844382413,-1.0,False,263.0,840.0,0.0,157.0,1
1337,1337,-0.8772896546287192,-0.9,False,396.0,554.0,0.0,180.0,1
1338,1338,-0.11244581444655455,-0.1,False,351.0,782.0,0.0,3867.0,1
1339,1339,-0.6536936427219964,-0.7,False,309.0,547.0,0.0,334.0,1
1340,1340,0.1462381359628795,0.1,True,333.0,803.0,1.0,2594.0,1
1341,1341,-0.5439406125889057,-0.5,False,470.0,601.0,0.0,179.0,1
1342,1342,-0.48720937800230213,-0.5,False,384.0,991.0,0.0,615.0,1
1343,1343,-0.3942340328541112,-0.4,False,406.0,769.0,0.0,375.0,1
1344,1344,-0.41792544602697235,-0.4,False,355.0,994.0,0.0,331.0,1
1345,1345,-0.36822798537124823,-0.4,False,291.0,960.0,0.0,269.0,1
1346,1346,0.342506307686262,0.3,True,325.0,605.0,1.0,970.0,1
1347,1347,-0.41762782404266185,-0.4,False,366.0,929.0,0.0,635.0,1
1348,1348,0.7598325774705095,0.8,True,491.0,535.0,1.0,214.0,1
1349,1349,-0.5746440037006537,-0.6,False,435.0,889.0,0.0,296.0,1
1350,1350,-0.8505204805890512,-0.9,False,333.0,956.0,0.0,301.0,1
1351,1351,0.07561603769817316,0.1,True,285.0,917.0,1.0,3798.0,1
1352,1352,0.09214785771720657,0.1,True,343.0,640.0,1.0,4017.0,1
1353,1353,0.5545484534212628,0.6,True,499.0,521.0,1.0,250.0,1
1354,1354,0.5014582133760705,0.5,True,436.0,520.0,1.0,364.0,1
1355,1355,0.5958322016645692,0.6,True,424.0,521.0,1.0,225.0,1
1356,1356,0.49522883350449476,0.5,True,336.0,779.0,1.0,285.0,1
1357,1357,-0.8065829481283233,-0.8,False,341.0,564.0,0.0,155.0,1
1358,1358,-0.265308146911001,-0.3,False,477.0,621.0,0.0,1492.0,1
1359,1359,0.018271326311828817,0.0,True,360.0,768.0,1.0,3872.0,1
1360,1360,0.9796346313198827,1.0,True,301.0,788.0,1.0,211.0,1
1361,1361,0.36983340985057267,0.4,True,392.0,841.0,1.0,427.0,1
1362,1362,-0.9568040085833645,-1.0,False,304.0,587.0,0.0,169.0,1
1363,1363,-0.24487135253048398,-0.2,False,414.0,899.0,0.0,367.0,1
1364,1364,0.5169882574552462,0.5,True,409.0,630.0,1.0,191.0,1
1365,1365,0.03617490498226683,0.0,True,444.0,583.0,1.0,3973.0,1
1366,1366,0.05206684253585814,0.1,True,339.0,803.0,1.0,3858.0,1
1367,1367,-0.9508809135188367,-1.0,False,460.0,660.0,0.0,110.0,1
1368,1368,0.365662997729836,0.4,True,485.0,741.0,1.0,584.0,1
1369,1369,-0.5364635196743548,-0.5,False,432.0,651.0,0.0,347.0,1
1370,1370,-0.03183577886624578,-0.0,False,361.0,691.0,0.0,3948.0,1
1371,1371,0.06022518494078,0.1,True,322.0,946.0,1.0,3732.0,1
1372,1372,-0.01174259280861345,-0.0,False,320.0,913.0,0.0,3767.0,1
1373,1373,0.07778985472142974,0.1,True,324.0,703.0,1.0,3973.0,1
1374,1374,0.8266314336895415,0.8,True,476.0,635.0,1.0,169.0,1
1375,1375,-0.9994227409453054,-1.0,False,472.0,883.0,0.0,125.0,1
1376,1376,0.9209795207873053,0.9,True,309.0,919.0,1.0,112.0,1
1377,1377,-0.7748397349456042,-0.8,False,488.0,579.0,0.0,283.0,1
1378,1378,-0.5314162530420379,-0.5,False,410.0,888.0,0.0,282.0,1
1379,1379,0.14086165869273204,0.1,True,279.0,927.0,1.0,864.0,1
1380,1380,-0.2103665404662738,-0.2,False,492.0,828.0,0.0,1520.0,1
1381,1381,-0.557448699710096,-0.6,False,269.0,584.0,0.0,317.0,1
1382,1382,0.8823804128940365,0.9,True,429.0,892.0,1.0,149.0,1
1383,1383,0.2960311740353916,0.3,True,265.0,548.0,1.0,2127.0,1
1384,1384,-0.05268822667507944,-0.1,False,428.0,936.0,0.0,3636.0,1
1385,1385,-0.268083766592923,-0.3,False,418.0,918.0,0.0,634.0,1
1386,1386,0.7703497164043582,0.8,True,385.0,743.0,1.0,242.0,1
1387,1387,0.8547587671335304,0.9,True,404.0,673.0,1.0,143.0,1
1388,1388,0.021123668815437036,0.0,True,488.0,746.0,1.0,3766.0,1
1389,1389,0.1805870780738723,0.2,True,329.0,941.0,1.0,870.0,1
1390,1390,0.9324338713921847,0.9,True,441.0,737.0,1.0,142.0,1
1391,1391,-0.24691225993053867,-0.2,False,386.0,880.0,0.0,1264.0,1
1392,1392,0.19659460423189,0.2,True,349.0,542.0,1.0,599.0,1
1393,1393,-0.5478126625312436,-0.5,False,438.0,932.0,0.0,250.0,1
1394,1394,-0.31594088185351454,-0.3,False,476.0,516.0,0.0,598.0,1
1395,1395,-0.5181827756963406,-0.5,False,388.0,620.0,0.0,382.0,1
1396,1396,-0.2821169261330303,-0.3,False,340.0,720.0,0.0,1090.0,1
1397,1397,0.453653589709464,0.5,True,435.0,717.0,1.0,538.0,1
1398,1398,0.2676869224724294,0.3,True,492.0,959.0,1.0,1179.0,1
1399,1399,0.00288210801877975,0.0,True,313.0,673.0,1.0,4014.0,1
1400,1400,0.8554896275234254,0.9,True,463.0,687.0,1.0,130.0,1
1401,1401,-0.6221215509391429,-0.6,False,350.0,786.0,0.0,384.0,1
1402,1402,0.5137947543827697,0.5,True,499.0,710.0,1.0,291.0,1
1403,1403,0.10772911465077706,0.1,True,319.0,683.0,1.0,3998.0,1
1404,1404,0.2410203021103161,0.2,True,294.0,616.0,1.0,520.0,1
1405,1405,-0.8291058270434759,-0.8,False,494.0,597.0,0.0,219.0,1
1406,1406,0.5428528249388247,0.5,True,353.0,556.0,1.0,341.0,1
1407,1407,0.838797714622304,0.8,True,311.0,678.0,1.0,181.0,1
1408,1408,-0.5604197968781699,-0.6,False,499.0,922.0,0.0,199.0,1
1409,1409,0.9967526938312761,1.0,True,434.0,803.0,1.0,103.0,1
1410,1410,0.9193636311736539,0.9,True,384.0,893.0,1.0,163.0,1
1411,1411,0.8932096286101536,0.9,True,365.0,604.0,1.0,161.0,1
1412,1412,0.28070842589533695,0.3,True,307.0,543.0,1.0,260.0,1
1413,1413,0.2872460547478155,0.3,True,252.0,722.0,1.0,406.0,1
1414,1414,-0.2423087363690406,-0.2,False,347.0,915.0,0.0,468.0,1
1415,1415,0.39558191024957634,0.4,True,324.0,506.0,1.0,570.0,1
1416,1416,-0.6899925256248332,-0.7,False,374.0,678.0,0.0,198.0,1
1417,1417,-0.20071107775404085,-0.2,False,420.0,569.0,0.0,681.0,1
1418,1418,-0.2836487860815926,-0.3,False,267.0,992.0,0.0,831.0,1
1419,1419,0.37537989535831695,0.4,True,276.0,671.0,1.0,663.0,1
1420,1420,0.5952998648337327,0.6,True,434.0,644.0,1.0,222.0,1
1421,1421,0.1565601350772612,0.2,True,361.0,711.0,1.0,3928.0,1
1422,1422,0.2479073677012138,0.2,True,411.0,677.0,1.0,2572.0,1
1423,1423,-0.34743154247879726,-0.3,False,251.0,771.0,0.0,378.0,1
1424,1424,-0.25697028869834715,-0.3,False,252.0,731.0,0.0,2007.0,1
1425,1425,-0.1776807235050255,-0.2,False,408.0,583.0,0.0,2549.0,1
1426,1426,0.7262219802594811,0.7,True,411.0,523.0,1.0,196.0,1
1427,1427,0.36652837886370637,0.4,True,489.0,705.0,1.0,516.0,1
1428,1428,0.6558180248163381,0.7,True,395.0,548.0,1.0,117.0,1
1429,1429,-0.9377137973495435,-0.9,False,447.0,823.0,0.0,150.0,1
1430,1430,0.2990844828305024,0.3,True,317.0,986.0,1.0,747.0,1
1431,1431,0.9141892547288195,0.9,True,257.0,691.0,1.0,222.0,1
1432,1432,0.7124742763660856,0.7,True,477.0,600.0,1.0,163.0,1
1433,1433,-0.9005573584328481,-0.9,False,420.0,883.0,0.0,167.0,1
1434,1434,-0.9720989120769254,-1.0,False,269.0,846.0,0.0,105.0,1
1435,1435,0.4349300067120956,0.4,True,324.0,744.0,1.0,392.0,1
1436,1436,-0.8098412708230651,-0.8,False,373.0,607.0,0.0,330.0,1
1437,1437,0.755515823835363,0.8,True,276.0,535.0,1.0,229.0,1
1438,1438,-0.057795656880973434,-0.1,False,265.0,795.0,0.0,3940.0,1
1439,1439,-0.39671658529760556,-0.4,False,331.0,969.0,0.0,450.0,1
1440,1440,-0.11361066254202523,-0.1,False,334.0,888.0,0.0,3778.0,1
1441,1441,0.37627969542906525,0.4,True,422.0,695.0,1.0,293.0,1
1442,1442,0.33251883936206084,0.3,True,279.0,849.0,1.0,592.0,1
1443,1443,0.7920984417950689,0.8,True,340.0,926.0,1.0,194.0,1
1444,1444,0.3217245522953245,0.3,True,442.0,609.0,1.0,269.0,1
1445,1445,0.9501646592331094,1.0,True,355.0,738.0,1.0,87.0,1
1446,1446,-0.5310111011557155,-0.5,False,325.0,740.0,0.0,175.0,1
1447,1447,0.638011591112752,0.6,True,474.0,833.0,1.0,203.0,1
1448,1448,-0.5975432484315224,-0.6,False,491.0,816.0,0.0,343.0,1
1449,1449,-0.7557848712650956,-0.8,False,263.0,818.0,0.0,179.0,1
1450,1450,0.44912073155194276,0.4,True,422.0,943.0,1.0,475.0,1
1451,1451,-0.6228368904721415,-0.6,False,454.0,803.0,0.0,343.0,1
1452,1452,0.8518847781244192,0.9,True,426.0,557.0,1.0,147.0,1
1453,1453,0.532737431986257,0.5,True,433.0,616.0,1.0,291.0,1
1454,1454,-0.5391287606191153,-0.5,False,287.0,828.0,0.0,205.0,1
1455,1455,0.9425271251170226,0.9,True,486.0,613.0,1.0,151.0,1
1456,1456,-0.7060767082446793,-0.7,False,387.0,549.0,0.0,254.0,1
1457,1457,0.45480469617347663,0.5,True,404.0,877.0,1.0,249.0,1
1458,1458,-0.9796396133817278,-1.0,False,457.0,631.0,0.0,192.0,1
1459,1459,0.995054745754606,1.0,True,253.0,874.0,1.0,173.0,1
1460,1460,-0.8862989670095418,-0.9,False,316.0,691.0,0.0,123.0,1
1461,1461,0.8571938909746093,0.9,True,262.0,977.0,1.0,151.0,1
1462,1462,0.8645650630504209,0.9,True,446.0,857.0,1.0,107.0,1
1463,1463,0.6838222237611411,0.7,True,367.0,740.0,1.0,253.0,1
1464,1464,0.19266721100580875,0.2,True,321.0,556.0,1.0,1063.0,1
1465,1465,0.23949070721148757,0.2,True,340.0,589.0,1.0,851.0,1
1466,1466,-0.4377741455862896,-0.4,False,255.0,744.0,0.0,361.0,1
1467,1467,-0.9693284983557005,-1.0,False,258.0,583.0,0.0,199.0,1
1468,1468,0.3181615406512768,0.3,True,290.0,920.0,1.0,380.0,1
1469,1469,-0.43713756323763664,-0.4,False,295.0,834.0,0.0,791.0,1
1470,1470,0.9104579893478,0.9,True,258.0,520.0,1.0,72.0,1
1471,1471,0.7260951007817913,0.7,True,359.0,565.0,1.0,76.0,1
1472,1472,-0.21275649482186898,-0.2,False,428.0,761.0,0.0,531.0,1
1473,1473,0.4005085128790453,0.4,True,333.0,645.0,1.0,282.0,1
1474,1474,-0.6113492188046687,-0.6,False,438.0,983.0,0.0,219.0,1
1475,1475,0.8919894753736473,0.9,True,447.0,812.0,1.0,131.0,1
1476,1476,-0.07687870362997296,-0.1,False,467.0,702.0,0.0,3831.0,1
1477,1477,-0.15840999354280316,-0.2,False,411.0,876.0,0.0,3713.0,1
1478,1478,-0.8974018717523482,-0.9,False,484.0,963.0,0.0,103.0,1
1479,1479,-0.02863906741516309,-0.0,False,294.0,928.0,0.0,3778.0,1
1480,1480,-0.04886434533314499,-0.0,False,399.0,743.0,0.0,3858.0,1
1481,1481,-0.8033788262658303,-0.8,False,252.0,532.0,0.0,96.0,1
1482,1482,-0.5288371458135326,-0.5,False,369.0,755.0,0.0,276.0,1
1483,1483,0.21847533062616464,0.2,True,277.0,793.0,1.0,2770.0,1
1484,1484,-0.058835534921164,-0.1,False,297.0,819.0,0.0,3884.0,1
1485,1485,-0.394227134336987,-0.4,False,409.0,695.0,0.0,366.0,1
1486,1486,-0.7901076950115187,-0.8,False,341.0,834.0,0.0,155.0,1
1487,1487,-0.6269347721622374,-0.6,False,429.0,902.0,0.0,279.0,1
1488,1488,0.05005669926403744,0.1,True,456.0,849.0,1.0,3695.0,1
1489,1489,-0.22281112495382915,-0.2,False,420.0,551.0,0.0,619.0,1
1490,1490,0.3035159960898155,0.3,True,391.0,513.0,1.0,2446.0,1
1491,1491,-0.34574118577696544,-0.3,False,479.0,501.0,0.0,420.0,1
1492,1492,-0.9858231528132415,-1.0,False,268.0,831.0,0.0,151.0,1
1493,1493,0.39758842310521225,0.4,True,413.0,775.0,1.0,482.0,1
1494,1494,0.5234698242747515,0.5,True,419.0,516.0,1.0,245.0,1
1495,1495,0.9594599240171322,1.0,True,300.0,578.0,1.0,132.0,1
1496,1496,0.39840272187340653,0.4,True,440.0,559.0,1.0,361.0,1
1497,1497,0.04906927461160748,0.0,True,298.0,852.0,1.0,3850.0,1
1498,1498,0.1184370023596002,0.1,True,448.0,976.0,1.0,3576.0,1
1499,1499,0.07499640984391509,0.1,True,336.0,584.0,1.0,4080.0,1
1500,1500,-0.6553759185147352,-0.7,False,353.0,992.0,0.0,225.0,1
1501,1501,-0.4272293196792123,-0.4,False,369.0,851.0,0.0,430.0,1
1502,1502,0.6916594696047116,0.7,True,407.0,742.0,1.0,241.0,1
1503,1503,-0.5554089556162005,-0.6,False,352.0,881.0,0.0,427.0,1
1504,1504,0.6563061870377978,0.7,True,405.0,584.0,1.0,111.0,1
1505,1505,-0.8362214336436553,-0.8,False,429.0,745.0,0.0,126.0,1
1506,1506,-0.9681627657948968,-1.0,False,259.0,886.0,0.0,175.0,1
1507,1507,0.9149830425258112,0.9,True,409.0,593.0,1.0,158.0,1
1508,1508,-0.404666619706036,-0.4,False,430.0,507.0,0.0,633.0,1
1509,1509,-0.8105413260189802,-0.8,False,260.0,973.0,0.0,177.0,1
1510,1510,-0.4606550636897453,-0.5,False,396.0,717.0,0.0,437.0,1
1511,1511,-0.4478923499611709,-0.4,False,442.0,959.0,0.0,369.0,1
1512,1512,0.4780482587393631,0.5,True,414.0,977.0,1.0,659.0,1
1513,1513,-0.37207493888001353,-0.4,False,368.0,747.0,0.0,635.0,1
1514,1514,-0.3686919618821656,-0.4,False,326.0,701.0,0.0,573.0,1
1515,1515,-0.24018403203769756,-0.2,False,411.0,617.0,0.0,742.0,1
1516,1516,0.34832005264523835,0.3,True,435.0,880.0,1.0,855.0,1
1517,1517,-0.69221874794606,-0.7,False,293.0,624.0,0.0,263.0,1
1518,1518,0.9437536573941028,0.9,True,355.0,795.0,1.0,160.0,1
1519,1519,-0.34146092379163373,-0.3,False,476.0,646.0,0.0,638.0,1
1520,1520,-0.3562491349943733,-0.4,False,300.0,560.0,0.0,470.0,1
1521,1521,0.07148302580500698,0.1,True,475.0,778.0,1.0,3747.0,1
1522,1522,0.03881408007692966,0.0,True,340.0,774.0,1.0,3886.0,1
1523,1523,0.11380899296922697,0.1,True,270.0,791.0,1.0,3939.0,1
1524,1524,0.21595973804254354,0.2,True,312.0,636.0,1.0,1422.0,1
1525,1525,0.44277935165927107,0.4,True,340.0,592.0,1.0,358.0,1
1526,1526,0.6713016665273104,0.7,True,456.0,650.0,1.0,244.0,1
1527,1527,-0.40816953301512005,-0.4,False,310.0,776.0,0.0,244.0,1
1528,1528,0.8223376181224678,0.8,True,436.0,629.0,1.0,225.0,1
1529,1529,-0.3553272890568058,-0.4,False,324.0,757.0,0.0,259.0,1
1530,1530,0.7375057910388352,0.7,True,435.0,967.0,1.0,308.0,1
1531,1531,0.8281229869439335,0.8,True,485.0,744.0,1.0,121.0,1
1532,1532,-0.07021751790295627,-0.1,False,366.0,843.0,0.0,3791.0,1
1533,1533,-0.41976446987942717,-0.4,False,299.0,827.0,0.0,404.0,1
1534,1534,-0.8858281253974434,-0.9,False,265.0,833.0,0.0,202.0,1
1535,1535,-0.057575883666566074,-0.1,False,303.0,714.0,0.0,3983.0,1
1536,1536,0.6909385334736016,0.7,True,328.0,877.0,1.0,255.0,1
1537,1537,0.7559535893582003,0.8,True,355.0,774.0,1.0,151.0,1
1538,1538,0.05641594867144373,0.1,True,269.0,666.0,1.0,4065.0,1
1539,1539,-0.38767811759379533,-0.4,False,424.0,583.0,0.0,433.0,1
1540,1540,0.07442824604115361,0.1,True,397.0,509.0,0.0,4094.0,0
1541,1541,-0.6154979810934615,-0.6,False,438.0,672.0,0.0,130.0,1
1542,1542,-0.8472751609633609,-0.8,False,271.0,982.0,0.0,197.0,1
1543,1543,-0.6790695204693791,-0.7,False,318.0,766.0,0.0,216.0,1
1544,1544,0.8529774096834282,0.9,True,390.0,741.0,1.0,199.0,1
1545,1545,0.7636136813001433,0.8,True,260.0,696.0,1.0,234.0,1
1546,1546,-0.17705187062463756,-0.2,False,391.0,539.0,0.0,3160.0,1
1547,1547,0.4353495245997627,0.4,True,322.0,637.0,1.0,331.0,1
1548,1548,-0.5664035388596809,-0.6,False,339.0,532.0,0.0,309.0,1
1549,1549,-0.7101511424010207,-0.7,False,471.0,965.0,0.0,214.0,1
1550,1550,0.28122129532780016,0.3,True,356.0,709.0,1.0,555.0,1
1551,1551,0.7354370552128509,0.7,True,295.0,992.0,1.0,193.0,1
1552,1552,-0.9175952681108734,-0.9,False,438.0,501.0,0.0,151.0,1
1553,1553,0.9948543660972324,1.0,True,268.0,750.0,1.0,132.0,1
1554,1554,0.14348989550882996,0.1,True,321.0,854.0,1.0,3825.0,1
1555,1555,0.5335439017003587,0.5,True,461.0,950.0,1.0,249.0,1
1556,1556,-0.8120194572325174,-0.8,False,330.0,774.0,0.0,236.0,1
1557,1557,0.7326262370500438,0.7,True,485.0,820.0,1.0,175.0,1
1558,1558,-0.6248761466236654,-0.6,False,298.0,746.0,0.0,286.0,1
1559,1559,0.8216284067696982,0.8,True,259.0,633.0,1.0,178.0,1
1560,1560,-0.6579948924137577,-0.7,False,272.0,698.0,0.0,170.0,1
1561,1561,0.21894598074357274,0.2,True,293.0,746.0,1.0,491.0,1
1562,1562,-0.6634869541641446,-0.7,False,497.0,723.0,0.0,180.0,1
1563,1563,0.15264004458932456,0.2,True,308.0,897.0,1.0,3305.0,1
1564,1564,0.4233062317659495,0.4,True,372.0,764.0,1.0,294.0,1
1565,1565,-0.08521363735874554,-0.1,False,292.0,718.0,0.0,3990.0,1
1566,1566,-0.6930893569612993,-0.7,False,282.0,951.0,0.0,227.0,1
1567,1567,0.8650083238533532,0.9,True,461.0,804.0,1.0,65.0,1
1568,1568,-0.026101926565517353,-0.0,False,278.0,856.0,0.0,3866.0,1
1569,1569,-0.6960734403579807,-0.7,False,382.0,504.0,0.0,354.0,1
1570,1570,0.7636720209749523,0.8,True,397.0,573.0,1.0,240.0,1
1571,1571,0.8192691186229124,0.8,True,421.0,553.0,1.0,176.0,1
1572,1572,0.42844389895323753,0.4,True,325.0,694.0,1.0,651.0,1
1573,1573,0.43505504753298285,0.4,True,278.0,524.0,1.0,388.0,1
1574,1574,0.18548791171973322,0.2,True,287.0,587.0,1.0,776.0,1
1575,1575,-0.9213275726481651,-0.9,False,465.0,881.0,0.0,154.0,1
1576,1576,-0.24951568777335198,-0.2,False,475.0,647.0,0.0,1158.0,1
1577,1577,-0.9649946539899299,-1.0,False,359.0,936.0,0.0,155.0,1
1578,1578,-0.016216260127156712,-0.0,False,368.0,867.0,0.0,3765.0,1
1579,1579,0.8955832034104139,0.9,True,310.0,715.0,1.0,125.0,1
1580,1580,0.6290884745636749,0.6,True,336.0,529.0,1.0,285.0,1
1581,1581,-0.6860916237572239,-0.7,False,466.0,801.0,0.0,223.0,1
1582,1582,0.8881914099056907,0.9,True,300.0,801.0,1.0,159.0,1
1583,1583,-0.0486802785531768,-0.0,False,425.0,959.0,0.0,3616.0,1
1584,1584,0.6326079198222976,0.6,True,327.0,729.0,1.0,204.0,1
1585,1585,-0.9737603721837673,-1.0,False,317.0,816.0,0.0,197.0,1
1586,1586,0.37805908269368893,0.4,True,458.0,603.0,1.0,369.0,1
1587,1587,0.3659789244746765,0.4,True,286.0,794.0,1.0,360.0,1
1588,1588,0.5480289660674749,0.5,True,375.0,692.0,1.0,283.0,1
1589,1589,-0.4067723110998991,-0.4,False,334.0,938.0,0.0,288.0,1
1590,1590,0.6240031589250807,0.6,True,378.0,560.0,1.0,142.0,1
1591,1591,0.3543053617641547,0.4,True,488.0,616.0,1.0,146.0,1
1592,1592,-0.4740666845153023,-0.5,False,477.0,856.0,0.0,207.0,1
1593,1593,-0.13492538836947343,-0.1,False,484.0,580.0,0.0,2476.0,1
1594,1594,0.4353951816404007,0.4,True,427.0,552.0,1.0,351.0,1
1595,1595,0.140789776269153,0.1,True,270.0,582.0,1.0,908.0,1
