,trial,coherence,coherence_bin,correct_side,target_onset,checker_onset,decision,decision_time,correct_decision
0,0,0.5442893842539536,0.5,True,310.0,849.0,1.0,461.0,1
1,1,-0.5767241008227264,-0.6,False,486.0,836.0,0.0,178.0,1
2,2,0.10341846051313719,0.1,True,320.0,597.0,0.0,4083.0,0
3,3,0.9644617859002,1.0,True,289.0,737.0,1.0,564.0,1
4,4,0.8007169324145518,0.8,True,469.0,582.0,1.0,1499.0,1
5,5,-0.6099459775948761,-0.6,False,350.0,722.0,0.0,138.0,1
6,6,-0.33371425131178856,-0.3,False,403.0,590.0,0.0,417.0,1
7,7,0.39859697980653674,0.4,True,310.0,536.0,1.0,1524.0,1
8,8,-0.35569760673492934,-0.4,False,319.0,939.0,0.0,2862.0,1
9,9,0.9084619259335982,0.9,True,482.0,996.0,1.0,252.0,1
10,10,-0.9160284805952588,-0.9,False,432.0,925.0,0.0,483.0,1
11,11,-0.29378599240292735,-0.3,False,253.0,579.0,0.0,2568.0,1
12,12,0.4461782157499108,0.4,True,292.0,980.0,1.0,918.0,1
13,13,-0.7832568482654172,-0.8,False,474.0,617.0,0.0,259.0,1
14,14,0.5648689989961868,0.6,True,384.0,793.0,1.0,213.0,1
15,15,0.5032637239936686,0.5,True,492.0,831.0,1.0,227.0,1
16,16,-0.49103660828538787,-0.5,False,484.0,673.0,0.0,1573.0,1
17,17,-0.03897869176984381,-0.0,False,424.0,742.0,0.0,3094.0,1
18,18,-0.09717811310930702,-0.1,False,407.0,764.0,0.0,219.0,1
19,19,-0.5288552774473663,-0.5,False,348.0,501.0,0.0,131.0,1
20,20,0.3240339118922595,0.3,True,336.0,838.0,1.0,626.0,1
21,21,0.7746543505743555,0.8,True,281.0,855.0,1.0,284.0,1
22,22,-0.572015022072021,-0.6,False,357.0,635.0,0.0,1378.0,1
23,23,-0.47827088367062487,-0.5,False,382.0,982.0,0.0,386.0,1
24,24,-0.9312677582989177,-0.9,False,274.0,994.0,0.0,362.0,1
25,25,-0.625508408740749,-0.6,False,466.0,813.0,0.0,91.0,1
26,26,-0.8789677150849204,-0.9,False,471.0,890.0,0.0,309.0,1
27,27,0.2630856253694114,0.3,True,406.0,964.0,1.0,2580.0,1
28,28,-0.8211529649274187,-0.8,False,488.0,920.0,0.0,222.0,1
29,29,-0.5070141433741651,-0.5,False,408.0,909.0,0.0,963.0,1
30,30,-0.5537728852374393,-0.6,False,434.0,812.0,0.0,434.0,1
31,31,0.9137554466811308,0.9,True,411.0,967.0,1.0,182.0,1
32,32,0.6528037183249769,0.7,True,321.0,656.0,1.0,203.0,1
33,33,-0.8555886288672174,-0.9,False,423.0,606.0,0.0,371.0,1
34,34,0.42698433738934494,0.4,True,415.0,911.0,1.0,2324.0,1
35,35,-0.13068457550208024,-0.1,False,450.0,959.0,0.0,1181.0,1
36,36,-0.7183484610836346,-0.7,False,251.0,989.0,0.0,660.0,1
37,37,0.9338457987344078,0.9,True,292.0,971.0,1.0,317.0,1
38,38,-0.347881658073639,-0.3,False,468.0,875.0,0.0,317.0,1
39,39,0.027683023947852048,0.0,True,406.0,821.0,1.0,3773.0,1
40,40,0.4787790595818251,0.5,True,442.0,528.0,1.0,490.0,1
41,41,0.7453960548446794,0.7,True,442.0,933.0,1.0,295.0,1
42,42,0.0026788341120937975,0.0,True,412.0,614.0,1.0,224.0,1
43,43,0.18421177986537862,0.2,True,350.0,883.0,1.0,807.0,1
44,44,-0.9940108301716308,-1.0,False,302.0,825.0,0.0,313.0,1
45,45,-0.5221383783193663,-0.5,False,291.0,682.0,0.0,77.0,1
46,46,0.6853655151337132,0.7,True,266.0,570.0,1.0,1244.0,1
47,47,-0.13520870128466855,-0.1,False,277.0,791.0,1.0,3932.0,0
48,48,0.3602218776620718,0.4,True,267.0,633.0,1.0,1120.0,1
49,49,0.7951190238017596,0.8,True,385.0,997.0,1.0,358.0,1
50,50,-0.6236441855115584,-0.6,False,494.0,817.0,0.0,269.0,1
51,51,0.8335381479048212,0.8,True,459.0,546.0,1.0,395.0,1
52,52,-0.5212240862084778,-0.5,False,272.0,675.0,0.0,523.0,1
53,53,0.8788081314026799,0.9,True,285.0,606.0,1.0,509.0,1
54,54,-0.07638488310816416,-0.1,False,310.0,523.0,1.0,667.0,0
55,55,-0.3642984592792351,-0.4,False,475.0,768.0,0.0,737.0,1
56,56,0.11471824054652391,0.1,True,336.0,807.0,1.0,3857.0,1
57,57,0.5157113550725674,0.5,True,316.0,746.0,1.0,188.0,1
58,58,-0.0029448984487741026,-0.0,False,264.0,739.0,0.0,3997.0,1
59,59,0.5113247628383011,0.5,True,390.0,987.0,1.0,913.0,1
60,60,0.8327439576079749,0.8,True,419.0,966.0,1.0,635.0,1
61,61,-0.49520376596988447,-0.5,False,479.0,569.0,0.0,352.0,1
62,62,0.6653235386093561,0.7,True,302.0,543.0,1.0,325.0,1
63,63,0.8488595960617642,0.8,True,379.0,764.0,1.0,267.0,1
64,64,0.7464543743198153,0.7,True,433.0,977.0,1.0,530.0,1
65,65,0.9284915641641553,0.9,True,399.0,644.0,1.0,237.0,1
66,66,-0.9314467271155362,-0.9,False,301.0,665.0,0.0,444.0,1
67,67,-0.6233200555260987,-0.6,False,394.0,934.0,0.0,622.0,1
68,68,-0.035227816360259734,-0.0,False,308.0,514.0,0.0,4128.0,1
69,69,-0.753899024223684,-0.8,False,486.0,859.0,0.0,285.0,1
70,70,0.661524531777913,0.7,True,354.0,719.0,1.0,147.0,1
71,71,0.9389713997381337,0.9,True,258.0,645.0,1.0,157.0,1
72,72,-0.40092786216040643,-0.4,False,256.0,712.0,0.0,1182.0,1
73,73,0.5093949508500333,0.5,True,435.0,682.0,1.0,233.0,1
74,74,-0.058857156648446374,-0.1,False,438.0,503.0,1.0,3639.0,0
75,75,-0.7923995397682593,-0.8,False,421.0,519.0,0.0,690.0,1
76,76,-0.2671920921742683,-0.3,False,417.0,716.0,0.0,1147.0,1
77,77,-0.003818283639596576,-0.0,False,320.0,521.0,1.0,1499.0,0
78,78,0.6002932076684397,0.6,True,310.0,788.0,1.0,572.0,1
79,79,-0.8093088341789221,-0.8,False,261.0,982.0,0.0,577.0,1
80,80,0.8999511265329663,0.9,True,310.0,671.0,1.0,149.0,1
81,81,-0.6026986254395112,-0.6,False,423.0,696.0,0.0,231.0,1
82,82,0.20210804123646864,0.2,True,304.0,674.0,1.0,3292.0,1
83,83,0.8436864066614953,0.8,True,387.0,878.0,1.0,195.0,1
84,84,0.6874375562729982,0.7,True,266.0,588.0,1.0,526.0,1
85,85,0.3700079736225437,0.4,True,456.0,733.0,1.0,951.0,1
86,86,-0.11811311252933754,-0.1,False,251.0,984.0,0.0,2035.0,1
87,87,-0.3440961328120411,-0.3,False,385.0,516.0,0.0,869.0,1
88,88,0.710988151501063,0.7,True,334.0,606.0,1.0,540.0,1
89,89,-0.5762169622883879,-0.6,False,430.0,640.0,0.0,130.0,1
90,90,-0.08172571226837144,-0.1,False,328.0,731.0,0.0,1051.0,1
91,91,-0.5970095980657619,-0.6,False,436.0,553.0,0.0,311.0,1
92,92,0.8597159789430091,0.9,True,314.0,659.0,1.0,857.0,1
93,93,0.27594410480098897,0.3,True,345.0,502.0,1.0,2463.0,1
94,94,0.1888789220665319,0.2,True,494.0,932.0,1.0,1224.0,1
95,95,-0.34661607957720664,-0.3,False,446.0,685.0,0.0,2109.0,1
96,96,0.11786965755981282,0.1,True,254.0,627.0,1.0,1889.0,1
97,97,-0.6779778126435168,-0.7,False,447.0,535.0,0.0,648.0,1
98,98,-0.6771218416508284,-0.7,False,401.0,839.0,0.0,240.0,1
99,99,-0.015550280199245092,-0.0,False,405.0,925.0,1.0,3670.0,0
100,100,0.4628941446203929,0.5,True,438.0,617.0,1.0,795.0,1
101,101,0.5512723823044918,0.6,True,427.0,649.0,1.0,594.0,1
102,102,-0.6022110438055674,-0.6,False,445.0,989.0,0.0,526.0,1
103,103,-0.9303579576689514,-0.9,False,496.0,745.0,0.0,329.0,1
104,104,0.8314005139347249,0.8,True,450.0,620.0,1.0,400.0,1
105,105,-0.6281860708894051,-0.6,False,374.0,537.0,0.0,1129.0,1
106,106,-0.22004735934144293,-0.2,False,470.0,802.0,0.0,2848.0,1
107,107,0.3296534267277391,0.3,True,468.0,935.0,1.0,1447.0,1
108,108,0.7781109831767334,0.8,True,451.0,874.0,1.0,475.0,1
109,109,-0.31747535543824634,-0.3,False,383.0,946.0,0.0,1081.0,1
110,110,0.28602190385445514,0.3,True,272.0,755.0,1.0,1813.0,1
111,111,-0.755020599502598,-0.8,False,382.0,915.0,0.0,493.0,1
112,112,-0.006068520098243102,-0.0,False,313.0,725.0,0.0,3962.0,1
113,113,-0.6838722886941853,-0.7,False,313.0,807.0,0.0,500.0,1
114,114,-0.9333487791324786,-0.9,False,414.0,569.0,0.0,217.0,1
115,115,-0.006976194097622512,-0.0,False,311.0,722.0,1.0,2417.0,0
116,116,-0.9332340052232235,-0.9,False,291.0,923.0,0.0,276.0,1
117,117,0.2939821303979182,0.3,True,294.0,900.0,1.0,886.0,1
118,118,-0.7223103874464305,-0.7,False,283.0,577.0,0.0,560.0,1
119,119,-0.31613306686417,-0.3,False,440.0,542.0,0.0,1248.0,1
120,120,-0.34667968501271296,-0.3,False,388.0,998.0,0.0,2264.0,1
121,121,-0.7235742311764612,-0.7,False,330.0,912.0,0.0,348.0,1
122,122,0.3942030449945382,0.4,True,279.0,699.0,1.0,1272.0,1
123,123,0.7038153682952915,0.7,True,472.0,693.0,1.0,405.0,1
124,124,-0.6943909899281282,-0.7,False,271.0,882.0,0.0,207.0,1
125,125,-0.270154715421296,-0.3,False,435.0,720.0,0.0,1165.0,1
126,126,0.10385794113720914,0.1,True,406.0,767.0,1.0,407.0,1
127,127,0.925026997257208,0.9,True,355.0,847.0,1.0,308.0,1
128,128,-0.3341125194120118,-0.3,False,281.0,727.0,0.0,432.0,1
129,129,-0.618619434296316,-0.6,False,353.0,760.0,0.0,587.0,1
130,130,-0.1851463577570709,-0.2,False,263.0,648.0,0.0,1399.0,1
131,131,0.41511401696268546,0.4,True,305.0,556.0,1.0,539.0,1
132,132,0.8410047170331023,0.8,True,299.0,784.0,1.0,137.0,1
133,133,-0.2724927460561666,-0.3,False,280.0,754.0,0.0,3746.0,1
134,134,-0.6107214433128589,-0.6,False,296.0,822.0,0.0,182.0,1
135,135,0.9776023521089332,1.0,True,406.0,914.0,1.0,170.0,1
136,136,-0.7055157764101609,-0.7,False,454.0,841.0,0.0,1035.0,1
137,137,0.6590364890175651,0.7,True,287.0,567.0,1.0,726.0,1
138,138,0.04042997706288509,0.0,True,484.0,663.0,0.0,3853.0,0
139,139,-0.1561868186508486,-0.2,False,419.0,551.0,0.0,4030.0,1
140,140,-0.58113931456763,-0.6,False,283.0,641.0,0.0,336.0,1
141,141,-0.7886958518734111,-0.8,False,385.0,710.0,0.0,225.0,1
142,142,0.7105432741859461,0.7,True,253.0,896.0,1.0,451.0,1
143,143,-0.41833091772953757,-0.4,False,422.0,878.0,0.0,380.0,1
144,144,0.6423318237414684,0.6,True,454.0,789.0,1.0,577.0,1
145,145,0.9406156281663418,0.9,True,367.0,732.0,1.0,291.0,1
146,146,-0.6520349664027907,-0.7,False,402.0,699.0,0.0,209.0,1
147,147,0.8547715231445734,0.9,True,415.0,997.0,1.0,188.0,1
148,148,-0.07196441267890297,-0.1,False,355.0,576.0,1.0,619.0,0
149,149,0.3117102149759703,0.3,True,304.0,716.0,1.0,990.0,1
150,150,-0.8888159505748394,-0.9,False,379.0,957.0,0.0,154.0,1
151,151,0.9638093916380506,1.0,True,331.0,714.0,1.0,435.0,1
152,152,0.8716549916978165,0.9,True,390.0,900.0,1.0,220.0,1
153,153,0.6005469469084497,0.6,True,376.0,744.0,1.0,1180.0,1
154,154,0.9312371065654934,0.9,True,456.0,616.0,1.0,778.0,1
155,155,-0.045845866549491854,-0.0,False,485.0,980.0,0.0,3535.0,1
156,156,0.22648668378143344,0.2,True,329.0,778.0,1.0,3893.0,1
157,157,0.8107215017234304,0.8,True,443.0,710.0,1.0,227.0,1
158,158,0.07999122204900311,0.1,True,312.0,624.0,0.0,944.0,0
159,159,0.051000157934773416,0.1,True,280.0,861.0,1.0,3859.0,1
160,160,-0.545192271433687,-0.5,False,395.0,699.0,0.0,566.0,1
161,161,-0.06015720171260175,-0.1,False,465.0,921.0,0.0,3614.0,1
162,162,-0.25529456693469554,-0.3,False,448.0,823.0,0.0,829.0,1
163,163,0.7022937894616452,0.7,True,357.0,556.0,1.0,527.0,1
164,164,0.738547639786655,0.7,True,437.0,611.0,1.0,292.0,1
165,165,0.7059203850307199,0.7,True,375.0,911.0,1.0,194.0,1
166,166,-0.16400671417937107,-0.2,False,428.0,782.0,0.0,3790.0,1
167,167,0.38785593692794973,0.4,True,408.0,781.0,1.0,681.0,1
168,168,-0.2829415745976467,-0.3,False,405.0,955.0,0.0,1430.0,1
169,169,0.05239811826012475,0.1,True,434.0,659.0,1.0,3907.0,1
170,170,-0.6604520422401297,-0.7,False,328.0,645.0,0.0,427.0,1
171,171,-0.020737362056364894,-0.0,False,424.0,695.0,1.0,371.0,0
172,172,-0.7502803159595508,-0.8,False,309.0,763.0,0.0,168.0,1
173,173,-0.43501340594770777,-0.4,False,297.0,651.0,0.0,792.0,1
174,174,0.34089848917422905,0.3,True,271.0,964.0,1.0,675.0,1
175,175,-0.8640366446824901,-0.9,False,355.0,699.0,0.0,366.0,1
176,176,-0.47703839370146306,-0.5,False,275.0,935.0,0.0,1580.0,1
177,177,0.8245656048222016,0.8,True,451.0,679.0,1.0,230.0,1
178,178,0.3495020553758834,0.3,True,358.0,629.0,1.0,503.0,1
179,179,-0.10264441554882375,-0.1,False,395.0,557.0,0.0,118.0,1
180,180,-0.7500142438419135,-0.8,False,266.0,899.0,0.0,225.0,1
181,181,-0.9734299997261637,-1.0,False,372.0,573.0,0.0,325.0,1
182,182,-0.24093388070488775,-0.2,False,390.0,942.0,0.0,3668.0,1
183,183,0.6420326590129619,0.6,True,394.0,567.0,1.0,249.0,1
184,184,-0.6717589196849376,-0.7,False,454.0,660.0,0.0,1306.0,1
185,185,0.11416107777633044,0.1,True,464.0,761.0,1.0,2455.0,1
186,186,0.827429441071297,0.8,True,377.0,588.0,1.0,385.0,1
187,187,0.9766203337938875,1.0,True,342.0,604.0,1.0,244.0,1
188,188,0.29082816844226667,0.3,True,427.0,719.0,1.0,3124.0,1
189,189,-0.5727037548753322,-0.6,False,273.0,873.0,0.0,214.0,1
190,190,-0.3522502326107242,-0.4,False,336.0,776.0,0.0,818.0,1
191,191,-0.34967658315665684,-0.3,False,425.0,938.0,0.0,457.0,1
192,192,0.2531907145329333,0.3,True,351.0,771.0,1.0,778.0,1
193,193,0.1704191608153638,0.2,True,253.0,909.0,1.0,438.0,1
194,194,0.6454615597648055,0.6,True,280.0,510.0,1.0,990.0,1
195,195,-0.42852066115875287,-0.4,False,352.0,692.0,0.0,826.0,1
196,196,-0.8030771178750127,-0.8,False,487.0,962.0,0.0,121.0,1
197,197,-0.5620342008875447,-0.6,False,325.0,871.0,0.0,214.0,1
198,198,0.013286207439417552,0.0,True,272.0,630.0,0.0,4098.0,0
199,199,0.539190318748475,0.5,True,434.0,896.0,1.0,430.0,1
200,200,-0.7704644743653881,-0.8,False,486.0,945.0,0.0,289.0,1
201,201,-0.8097787366010336,-0.8,False,299.0,553.0,0.0,1458.0,1
202,202,0.8428568627751856,0.8,True,370.0,673.0,1.0,437.0,1
203,203,-0.5436662099390199,-0.5,False,397.0,717.0,0.0,116.0,1
204,204,-0.9551816383613367,-1.0,False,327.0,958.0,0.0,145.0,1
205,205,0.7839664716577084,0.8,True,369.0,834.0,1.0,637.0,1
206,206,0.1310397833384156,0.1,True,468.0,791.0,1.0,1031.0,1
207,207,-0.6692452120832684,-0.7,False,340.0,526.0,0.0,84.0,1
208,208,-0.7607738124668424,-0.8,False,316.0,599.0,0.0,935.0,1
209,209,-0.19138900317073615,-0.2,False,286.0,883.0,0.0,3211.0,1
210,210,-0.8099043391273195,-0.8,False,312.0,901.0,0.0,297.0,1
211,211,0.9072610591122305,0.9,True,436.0,608.0,1.0,306.0,1
212,212,-0.8190665988622585,-0.8,False,487.0,612.0,0.0,261.0,1
213,213,0.23099464931833147,0.2,True,384.0,981.0,1.0,3625.0,1
214,214,0.5732747428891347,0.6,True,483.0,517.0,1.0,1350.0,1
215,215,0.3092202155712067,0.3,True,401.0,529.0,1.0,2770.0,1
216,216,0.783628672526379,0.8,True,328.0,805.0,1.0,257.0,1
217,217,0.014142609608691847,0.0,True,462.0,562.0,1.0,1166.0,1
218,218,-0.5050597806419495,-0.5,False,374.0,575.0,0.0,411.0,1
219,219,0.8539920226509861,0.9,True,466.0,636.0,1.0,228.0,1
220,220,-0.2507906049746449,-0.3,False,294.0,500.0,0.0,156.0,1
221,221,-0.11074142025870026,-0.1,False,355.0,694.0,0.0,3951.0,1
222,222,-0.3455822253252514,-0.3,False,285.0,624.0,0.0,4091.0,1
223,223,-0.8526421328863183,-0.9,False,314.0,924.0,0.0,832.0,1
224,224,0.6796382223121691,0.7,True,499.0,772.0,1.0,169.0,1
225,225,0.7226969746729797,0.7,True,263.0,985.0,1.0,162.0,1
226,226,-0.21645192059007168,-0.2,False,307.0,693.0,1.0,4000.0,0
227,227,0.9146687844071366,0.9,True,384.0,819.0,1.0,257.0,1
228,228,-0.9168202357516582,-0.9,False,436.0,803.0,0.0,431.0,1
229,229,0.43009378092802986,0.4,True,276.0,925.0,1.0,1209.0,1
230,230,0.8960851721483747,0.9,True,341.0,650.0,1.0,289.0,1
231,231,-0.8225656318925421,-0.8,False,302.0,736.0,0.0,522.0,1
232,232,-0.06664215991874411,-0.1,False,362.0,752.0,0.0,1516.0,1
233,233,-0.8633759288329095,-0.9,False,251.0,600.0,0.0,259.0,1
234,234,0.09116394485602308,0.1,True,317.0,935.0,1.0,1008.0,1
235,235,-0.18208391513618039,-0.2,False,253.0,682.0,0.0,815.0,1
236,236,-0.6724763112336039,-0.7,False,464.0,921.0,0.0,1295.0,1
237,237,0.03260531860733917,0.0,True,332.0,966.0,1.0,2422.0,1
238,238,-0.9447820708213013,-0.9,False,401.0,951.0,0.0,738.0,1
239,239,-0.5681255833999332,-0.6,False,265.0,563.0,0.0,672.0,1
240,240,0.2732670946212865,0.3,True,336.0,677.0,1.0,237.0,1
241,241,-0.5801313885996366,-0.6,False,378.0,705.0,0.0,497.0,1
242,242,-0.5782703338734285,-0.6,False,461.0,861.0,0.0,968.0,1
243,243,-0.22164014611396277,-0.2,False,467.0,783.0,0.0,1480.0,1
244,244,0.7055640950644644,0.7,True,265.0,792.0,1.0,463.0,1
245,245,-0.0989926270374697,-0.1,False,447.0,747.0,0.0,1196.0,1
246,246,-0.28601107313462126,-0.3,False,351.0,574.0,0.0,1675.0,1
247,247,0.2862879387342805,0.3,True,298.0,599.0,1.0,1743.0,1
248,248,-0.04088394842819798,-0.0,False,404.0,877.0,0.0,1409.0,1
249,249,-0.7944091089567193,-0.8,False,485.0,754.0,0.0,671.0,1
250,250,-0.5206338787186491,-0.5,False,387.0,773.0,0.0,830.0,1
251,251,0.37933408100041754,0.4,True,495.0,568.0,1.0,1487.0,1
252,252,0.7128054671793749,0.7,True,450.0,737.0,1.0,813.0,1
253,253,-0.938320813607388,-0.9,False,307.0,610.0,0.0,213.0,1
254,254,-0.26062886471031743,-0.3,False,256.0,914.0,0.0,2020.0,1
255,255,0.19985378794997732,0.2,True,347.0,505.0,1.0,2028.0,1
256,256,0.9699046200101895,1.0,True,386.0,963.0,1.0,281.0,1
257,257,-0.8267315145437935,-0.8,False,359.0,739.0,0.0,922.0,1
258,258,-0.8396358274456193,-0.8,False,256.0,551.0,0.0,243.0,1
259,259,-0.08310560832481229,-0.1,False,320.0,525.0,1.0,955.0,0
260,260,0.5342921403673886,0.5,True,321.0,848.0,1.0,551.0,1
261,261,-0.6630107683986293,-0.7,False,262.0,875.0,0.0,583.0,1
262,262,0.48899905522397913,0.5,True,497.0,823.0,1.0,930.0,1
263,263,0.1491150242158259,0.1,True,413.0,633.0,1.0,3044.0,1
264,264,0.5393973989039382,0.5,True,324.0,536.0,1.0,510.0,1
265,265,-0.610791146849927,-0.6,False,285.0,660.0,0.0,335.0,1
266,266,0.8311948443495341,0.8,True,374.0,710.0,1.0,196.0,1
267,267,-0.5692278898174545,-0.6,False,405.0,999.0,0.0,376.0,1
268,268,-0.45701054631048765,-0.5,False,494.0,637.0,0.0,729.0,1
269,269,-0.2800557806214108,-0.3,False,317.0,599.0,0.0,934.0,1
270,270,-0.8736690773390847,-0.9,False,420.0,750.0,0.0,140.0,1
271,271,-0.2814417687590647,-0.3,False,408.0,500.0,0.0,942.0,1
272,272,-0.4386146250249965,-0.4,False,416.0,644.0,0.0,1100.0,1
273,273,-0.7752409882247446,-0.8,False,264.0,815.0,0.0,251.0,1
274,274,0.43087525678525296,0.4,True,310.0,911.0,1.0,1389.0,1
275,275,0.039305156489019,0.0,True,441.0,883.0,0.0,2676.0,0
276,276,-0.7468260040244212,-0.7,False,453.0,671.0,0.0,456.0,1
277,277,-0.6470686744865901,-0.6,False,408.0,663.0,0.0,819.0,1
278,278,0.5494847017016415,0.5,True,279.0,506.0,1.0,255.0,1
279,279,-0.06947813704457007,-0.1,False,298.0,663.0,0.0,2879.0,1
280,280,-0.952047847744868,-1.0,False,369.0,943.0,0.0,618.0,1
281,281,0.9143875626617433,0.9,True,427.0,777.0,1.0,176.0,1
282,282,-0.6481066008816707,-0.6,False,312.0,597.0,0.0,461.0,1
283,283,0.4040165944624059,0.4,True,305.0,812.0,1.0,2493.0,1
284,284,0.21180309723372726,0.2,True,463.0,719.0,1.0,668.0,1
285,285,0.95817344108363,1.0,True,250.0,791.0,1.0,309.0,1
286,286,-0.1327458979575844,-0.1,False,412.0,939.0,0.0,3649.0,1
287,287,-0.0977120397222313,-0.1,False,274.0,987.0,0.0,3739.0,1
288,288,0.2361138285080715,0.2,True,455.0,805.0,1.0,1230.0,1
289,289,-0.23259271719372054,-0.2,False,487.0,655.0,0.0,398.0,1
290,290,-0.6879589735830838,-0.7,False,319.0,825.0,0.0,816.0,1
291,291,-0.175643473115219,-0.2,False,332.0,531.0,0.0,2237.0,1
292,292,-0.5143490163997044,-0.5,False,270.0,647.0,0.0,283.0,1
293,293,0.3572418701338027,0.4,True,488.0,880.0,1.0,1832.0,1
294,294,0.8611192912711934,0.9,True,492.0,682.0,1.0,246.0,1
295,295,0.9199299232871334,0.9,True,442.0,872.0,1.0,416.0,1
296,296,-0.21700893280348943,-0.2,False,286.0,880.0,0.0,2594.0,1
297,297,-0.006579568718251716,-0.0,False,324.0,795.0,0.0,2171.0,1
298,298,-0.8731155742547314,-0.9,False,336.0,589.0,0.0,65.0,1
299,299,0.6553932827525455,0.7,True,289.0,873.0,1.0,178.0,1
300,300,0.8279741067859785,0.8,True,442.0,876.0,1.0,402.0,1
301,301,0.5865185101696355,0.6,True,473.0,769.0,1.0,228.0,1
302,302,0.9801058753730967,1.0,True,253.0,609.0,1.0,528.0,1
303,303,0.06923846818708324,0.1,True,322.0,574.0,1.0,1194.0,1
304,304,-0.639287581782938,-0.6,False,475.0,523.0,0.0,782.0,1
305,305,-0.6703892259483915,-0.7,False,304.0,931.0,0.0,875.0,1
306,306,0.9545999671996046,1.0,True,378.0,974.0,1.0,138.0,1
307,307,0.39643357901675924,0.4,True,490.0,872.0,1.0,1068.0,1
308,308,-0.593076761843699,-0.6,False,339.0,735.0,0.0,756.0,1
309,309,-0.8137050999169138,-0.8,False,367.0,665.0,0.0,298.0,1
310,310,-0.7994769810671247,-0.8,False,369.0,756.0,0.0,145.0,1
311,311,-0.8132273062180868,-0.8,False,303.0,621.0,0.0,506.0,1
312,312,-0.8028755160446797,-0.8,False,452.0,640.0,0.0,378.0,1
313,313,0.3698543800754861,0.4,True,333.0,999.0,1.0,1538.0,1
314,314,0.3043643951928363,0.3,True,401.0,594.0,1.0,2565.0,1
315,315,-0.2553446170349105,-0.3,False,383.0,706.0,1.0,3911.0,0
316,316,-0.46318061248735454,-0.5,False,307.0,678.0,0.0,795.0,1
317,317,-0.2563284277532998,-0.3,False,407.0,908.0,0.0,1935.0,1
318,318,0.08464172859701535,0.1,True,407.0,943.0,0.0,3650.0,0
319,319,0.9224121912770837,0.9,True,393.0,883.0,1.0,804.0,1
320,320,0.7515073405304353,0.8,True,413.0,828.0,1.0,799.0,1
321,321,-0.3949375489006788,-0.4,False,340.0,979.0,0.0,191.0,1
322,322,-0.2354888750706814,-0.2,False,304.0,726.0,0.0,2020.0,1
323,323,0.7535785109008433,0.8,True,303.0,975.0,1.0,572.0,1
324,324,-0.1924813464575652,-0.2,False,290.0,826.0,0.0,834.0,1
325,325,-0.7620734136857659,-0.8,False,266.0,518.0,0.0,236.0,1
326,326,-0.6143867602128583,-0.6,False,269.0,556.0,0.0,315.0,1
327,327,0.0002904253980917648,0.0,True,454.0,766.0,0.0,3780.0,0
328,328,-0.5900474139064664,-0.6,False,283.0,530.0,0.0,257.0,1
329,329,0.15503766384385487,0.2,True,332.0,708.0,1.0,1670.0,1
330,330,0.4349509595745955,0.4,True,323.0,893.0,1.0,184.0,1
331,331,-0.14039087606258915,-0.1,False,267.0,865.0,1.0,3868.0,0
332,332,-0.9994246815309271,-1.0,False,276.0,659.0,0.0,65.0,1
333,333,0.47797072303037713,0.5,True,449.0,775.0,1.0,436.0,1
334,334,-0.4886755498039488,-0.5,False,328.0,647.0,0.0,145.0,1
335,335,-0.6597841737636609,-0.7,False,252.0,971.0,0.0,1017.0,1
336,336,-0.48244846417404097,-0.5,False,383.0,968.0,0.0,629.0,1
337,337,-0.49676321213526475,-0.5,False,394.0,652.0,0.0,1034.0,1
338,338,0.8294356212274046,0.8,True,266.0,903.0,1.0,161.0,1
339,339,-0.02276355294419452,-0.0,False,382.0,950.0,1.0,3668.0,0
340,340,-0.012263988991304542,-0.0,False,345.0,631.0,0.0,1794.0,1
341,341,-0.48499014088118586,-0.5,False,363.0,984.0,0.0,623.0,1
342,342,0.9715536424838458,1.0,True,284.0,661.0,1.0,285.0,1
343,343,0.9815973251182517,1.0,True,499.0,937.0,1.0,304.0,1
344,344,-0.5573543659716447,-0.6,False,322.0,818.0,0.0,450.0,1
345,345,-0.18713698001903878,-0.2,False,362.0,946.0,0.0,1052.0,1
346,346,0.6496720826522457,0.6,True,412.0,557.0,1.0,361.0,1
347,347,0.938182749335492,0.9,True,473.0,921.0,1.0,306.0,1
348,348,-0.885790936144315,-0.9,False,483.0,832.0,0.0,465.0,1
349,349,0.5469911501755538,0.5,True,303.0,541.0,1.0,756.0,1
350,350,0.03461344464657179,0.0,True,389.0,808.0,0.0,1633.0,0
351,351,-0.2110240301918469,-0.2,False,405.0,502.0,0.0,4093.0,1
352,352,0.10027309204205892,0.1,True,493.0,648.0,1.0,249.0,1
353,353,-0.9730722431553238,-1.0,False,475.0,787.0,0.0,428.0,1
354,354,0.41906873044476756,0.4,True,348.0,984.0,1.0,338.0,1
355,355,-0.6044047241089798,-0.6,False,347.0,932.0,0.0,701.0,1
356,356,-0.847462173564417,-0.8,False,304.0,651.0,0.0,585.0,1
357,357,-0.4038114121414431,-0.4,False,254.0,633.0,0.0,483.0,1
358,358,0.49164858118390997,0.5,True,277.0,775.0,1.0,88.0,1
359,359,0.6017663726924953,0.6,True,428.0,924.0,1.0,748.0,1
360,360,0.6175452132798018,0.6,True,250.0,587.0,1.0,223.0,1
361,361,-0.4872744674098999,-0.5,False,486.0,575.0,0.0,179.0,1
362,362,0.4616554252215521,0.5,True,287.0,716.0,1.0,257.0,1
363,363,-0.4669662744631009,-0.5,False,359.0,800.0,1.0,301.0,0
364,364,0.5438605792991988,0.5,True,446.0,603.0,1.0,271.0,1
365,365,-0.918209148324953,-0.9,False,410.0,841.0,0.0,279.0,1
366,366,-0.10719875564771941,-0.1,False,362.0,833.0,1.0,185.0,0
367,367,-0.1693733878004282,-0.2,False,299.0,938.0,0.0,2943.0,1
368,368,-0.7389119692758532,-0.7,False,392.0,755.0,0.0,573.0,1
369,369,-0.5860657720863243,-0.6,False,479.0,565.0,0.0,696.0,1
370,370,0.35853792522167804,0.4,True,252.0,990.0,1.0,1408.0,1
371,371,0.340495344837183,0.3,True,395.0,783.0,1.0,172.0,1
372,372,-0.6320700038430602,-0.6,False,352.0,713.0,0.0,305.0,1
373,373,0.5843255255915862,0.6,True,437.0,855.0,1.0,798.0,1
374,374,-0.2959812554664343,-0.3,False,305.0,812.0,0.0,323.0,1
375,375,0.9764790149420581,1.0,True,373.0,790.0,1.0,157.0,1
376,376,0.38289615155216294,0.4,True,495.0,909.0,1.0,286.0,1
377,377,0.10539525240864456,0.1,True,430.0,542.0,1.0,358.0,1
378,378,-0.8617110849128033,-0.9,False,371.0,687.0,0.0,252.0,1
379,379,-0.2832995837564196,-0.3,False,273.0,782.0,0.0,3945.0,1
380,380,-0.3616396536384969,-0.4,False,417.0,575.0,0.0,828.0,1
381,381,0.749730516774874,0.7,True,272.0,988.0,1.0,760.0,1
382,382,-0.649823856745084,-0.6,False,336.0,750.0,0.0,284.0,1
383,383,-0.5470619164038486,-0.5,False,476.0,927.0,0.0,187.0,1
384,384,0.7310003721162299,0.7,True,309.0,848.0,1.0,413.0,1
385,385,-0.5024050960614588,-0.5,False,395.0,508.0,0.0,907.0,1
386,386,-0.42198139122344824,-0.4,False,477.0,524.0,0.0,2569.0,1
387,387,0.061698513873265304,0.1,True,488.0,981.0,1.0,351.0,1
388,388,-0.36607174325884895,-0.4,False,486.0,746.0,0.0,2048.0,1
389,389,-0.4541371885016181,-0.5,False,369.0,722.0,0.0,2359.0,1
390,390,-0.2560192922182736,-0.3,False,352.0,717.0,0.0,1641.0,1
391,391,0.829689230427795,0.8,True,446.0,874.0,1.0,1090.0,1
392,392,-0.7102348365337356,-0.7,False,268.0,811.0,0.0,371.0,1
393,393,-0.9660893306136624,-1.0,False,294.0,515.0,0.0,631.0,1
394,394,0.8658512514953922,0.9,True,418.0,807.0,1.0,685.0,1
395,395,0.6462860597168434,0.6,True,283.0,896.0,1.0,161.0,1
396,396,-0.6425864382102695,-0.6,False,333.0,559.0,0.0,1528.0,1
397,397,-0.7006380760577287,-0.7,False,275.0,571.0,0.0,374.0,1
398,398,-0.6244301838613402,-0.6,False,355.0,520.0,0.0,155.0,1
399,399,0.2542844898045997,0.3,True,403.0,812.0,1.0,1595.0,1
400,400,0.0495856719583021,0.0,True,327.0,718.0,1.0,3955.0,1
401,401,-0.7047727602777853,-0.7,False,474.0,706.0,0.0,400.0,1
402,402,0.8532940719080866,0.9,True,411.0,534.0,1.0,115.0,1
403,403,0.42088929832616007,0.4,True,390.0,648.0,1.0,362.0,1
404,404,-0.10504843513864026,-0.1,False,373.0,788.0,1.0,459.0,0
405,405,-0.6586582280993298,-0.7,False,462.0,827.0,0.0,421.0,1
406,406,0.938365097030945,0.9,True,386.0,853.0,1.0,291.0,1
407,407,0.4960382148720499,0.5,True,394.0,907.0,1.0,949.0,1
408,408,-0.9977446950773434,-1.0,False,277.0,659.0,0.0,334.0,1
409,409,-0.07156033595896338,-0.1,False,296.0,628.0,0.0,226.0,1
410,410,0.641816750898137,0.6,True,338.0,510.0,1.0,312.0,1
411,411,0.5587735852260587,0.6,True,286.0,633.0,1.0,561.0,1
412,412,0.5915378493147088,0.6,True,496.0,866.0,1.0,168.0,1
413,413,0.16485560529302368,0.2,True,340.0,765.0,1.0,1425.0,1
414,414,0.4721597588807849,0.5,True,284.0,729.0,1.0,867.0,1
415,415,-0.015992985954875305,-0.0,False,406.0,964.0,0.0,3630.0,1
416,416,-0.7817666805305266,-0.8,False,398.0,974.0,0.0,748.0,1
417,417,0.6384531123000543,0.6,True,289.0,948.0,1.0,683.0,1
418,418,-0.44862106560779336,-0.4,False,461.0,982.0,0.0,777.0,1
419,419,0.1794229935884235,0.2,True,417.0,673.0,1.0,740.0,1
420,420,-0.03355327071084724,-0.0,False,382.0,910.0,1.0,618.0,0
421,421,-0.3554783366353962,-0.4,False,426.0,858.0,0.0,2546.0,1
422,422,-0.1567109948953609,-0.2,False,407.0,500.0,0.0,1193.0,1
423,423,-0.3330748315458496,-0.3,False,420.0,917.0,0.0,443.0,1
424,424,0.895508257921521,0.9,True,293.0,754.0,1.0,303.0,1
425,425,-0.7104872954037225,-0.7,False,449.0,612.0,0.0,1379.0,1
426,426,0.046407229010848816,0.0,True,336.0,934.0,1.0,2830.0,1
427,427,0.10844165739040079,0.1,True,278.0,875.0,1.0,3847.0,1
428,428,-0.37006966417200227,-0.4,False,339.0,909.0,0.0,502.0,1
429,429,0.6783684582054932,0.7,True,298.0,602.0,1.0,640.0,1
430,430,0.4505757722915853,0.5,True,427.0,825.0,1.0,728.0,1
431,431,0.14137644957710993,0.1,True,278.0,962.0,1.0,3760.0,1
432,432,-0.49619859590593984,-0.5,False,327.0,653.0,0.0,390.0,1
433,433,0.6818008203491459,0.7,True,448.0,695.0,1.0,547.0,1
434,434,-0.6750776829361074,-0.7,False,423.0,892.0,0.0,1955.0,1
435,435,-0.688533055554237,-0.7,False,295.0,718.0,0.0,407.0,1
436,436,-0.44595768936697433,-0.4,False,371.0,534.0,0.0,2145.0,1
437,437,0.7563293972567051,0.8,True,393.0,771.0,1.0,616.0,1
438,438,-0.5045408735537145,-0.5,False,330.0,872.0,0.0,708.0,1
439,439,0.037831928254011604,0.0,True,329.0,850.0,1.0,2321.0,1
440,440,-0.5327320876919521,-0.5,False,472.0,711.0,0.0,557.0,1
441,441,-0.3810855508652924,-0.4,False,334.0,528.0,0.0,1068.0,1
442,442,0.5076164691389442,0.5,True,395.0,773.0,1.0,1142.0,1
443,443,0.37554725301522796,0.4,True,385.0,596.0,1.0,699.0,1
444,444,-0.03590417938704071,-0.0,False,365.0,621.0,0.0,2414.0,1
445,445,0.5244793169847477,0.5,True,381.0,784.0,1.0,1335.0,1
446,446,0.40024279208603586,0.4,True,486.0,646.0,1.0,428.0,1
447,447,0.5543286381412846,0.6,True,459.0,641.0,1.0,160.0,1
448,448,-0.3899819985177557,-0.4,False,395.0,626.0,0.0,649.0,1
449,449,-0.3078758082030435,-0.3,False,352.0,667.0,0.0,91.0,1
450,450,-0.3765821575320467,-0.4,False,470.0,575.0,0.0,225.0,1
451,451,0.028843735628810707,0.0,True,314.0,846.0,0.0,3050.0,0
452,452,0.8321112219047229,0.8,True,285.0,637.0,1.0,328.0,1
453,453,-0.8139047242257718,-0.8,False,327.0,752.0,0.0,321.0,1
454,454,0.20949677376948528,0.2,True,417.0,585.0,1.0,548.0,1
455,455,-0.7845848566122331,-0.8,False,446.0,546.0,0.0,168.0,1
456,456,-0.2784252949639825,-0.3,False,473.0,559.0,0.0,2798.0,1
457,457,-0.4112169226337856,-0.4,False,478.0,856.0,0.0,1326.0,1
458,458,0.03909256306524811,0.0,True,429.0,595.0,1.0,946.0,1
459,459,0.7344507177573849,0.7,True,298.0,805.0,1.0,1167.0,1
460,460,0.6680027525725876,0.7,True,384.0,680.0,1.0,376.0,1
461,461,-0.9545538694564664,-1.0,False,429.0,712.0,0.0,59.0,1
462,462,0.11836984921314242,0.1,True,276.0,759.0,1.0,1235.0,1
463,463,0.5614497628332615,0.6,True,277.0,823.0,1.0,570.0,1
464,464,0.03055062052877311,0.0,True,255.0,534.0,1.0,4211.0,1
465,465,-0.4134129298070699,-0.4,False,449.0,647.0,0.0,984.0,1
466,466,-0.09072481301178703,-0.1,False,383.0,751.0,0.0,3186.0,1
467,467,0.32503706147262457,0.3,True,269.0,779.0,1.0,892.0,1
468,468,0.7271841769013436,0.7,True,287.0,833.0,1.0,1030.0,1
469,469,0.5327268895241559,0.5,True,335.0,974.0,1.0,1521.0,1
470,470,0.24659930062325874,0.2,True,263.0,587.0,1.0,1240.0,1
471,471,0.8735987907014857,0.9,True,325.0,705.0,1.0,240.0,1
472,472,-0.1398960814777821,-0.1,False,389.0,523.0,0.0,2778.0,1
473,473,0.6955226539241677,0.7,True,254.0,869.0,1.0,567.0,1
474,474,0.6991342597088035,0.7,True,271.0,528.0,1.0,61.0,1
475,475,0.544518354204675,0.5,True,381.0,907.0,1.0,1352.0,1
476,476,-0.8780496889322482,-0.9,False,461.0,647.0,0.0,162.0,1
477,477,0.8744844404650289,0.9,True,450.0,799.0,1.0,341.0,1
478,478,-0.7321840593056379,-0.7,False,323.0,868.0,0.0,339.0,1
479,479,0.3461325285890129,0.3,True,449.0,943.0,1.0,838.0,1
480,480,-0.7227800419316941,-0.7,False,273.0,868.0,0.0,509.0,1
481,481,-0.7622853587227423,-0.8,False,408.0,570.0,0.0,192.0,1
482,482,-0.9576558785160356,-1.0,False,469.0,805.0,0.0,336.0,1
483,483,-0.8637484986276116,-0.9,False,460.0,802.0,0.0,998.0,1
484,484,-0.652151987352074,-0.7,False,333.0,750.0,0.0,247.0,1
485,485,-0.8527163971712779,-0.9,False,312.0,912.0,0.0,226.0,1
486,486,0.8899492207605764,0.9,True,488.0,513.0,1.0,159.0,1
487,487,-0.7681503518378383,-0.8,False,302.0,983.0,0.0,565.0,1
488,488,0.9892641669977951,1.0,True,442.0,694.0,1.0,114.0,1
489,489,0.8467981298433354,0.8,True,393.0,817.0,1.0,540.0,1
490,490,-0.07503078459927925,-0.1,False,451.0,808.0,0.0,2611.0,1
491,491,0.12348135069961774,0.1,True,301.0,975.0,1.0,1334.0,1
492,492,-0.004761343540005125,-0.0,False,295.0,893.0,0.0,3632.0,1
493,493,-0.09636302276544839,-0.1,False,329.0,651.0,0.0,4020.0,1
494,494,-0.11011741889560156,-0.1,False,405.0,518.0,0.0,2537.0,1
495,495,0.5417195290046684,0.5,True,340.0,797.0,1.0,1173.0,1
496,496,0.6010949060568436,0.6,True,479.0,901.0,1.0,390.0,1
497,497,-0.8238242508402236,-0.8,False,283.0,729.0,0.0,98.0,1
498,498,-0.40690011780743895,-0.4,False,365.0,572.0,0.0,903.0,1
499,499,0.1802967011436627,0.2,True,391.0,853.0,1.0,2496.0,1
500,500,-0.15437082269736124,-0.2,False,354.0,856.0,1.0,2340.0,0
501,501,-0.044964698095863787,-0.0,False,314.0,517.0,1.0,4169.0,0
502,502,0.5631407394577277,0.6,True,320.0,661.0,1.0,479.0,1
503,503,-0.7946288722941219,-0.8,False,325.0,979.0,0.0,446.0,1
504,504,0.2172775531084994,0.2,True,480.0,805.0,1.0,585.0,1
505,505,0.26506133734595316,0.3,True,336.0,608.0,1.0,536.0,1
506,506,0.07817574385171522,0.1,True,304.0,784.0,1.0,3912.0,1
507,507,0.6977646886377038,0.7,True,259.0,690.0,1.0,491.0,1
508,508,0.0395591716048338,0.0,True,265.0,995.0,1.0,1440.0,1
509,509,0.0734564508875406,0.1,True,298.0,985.0,1.0,437.0,1
510,510,-0.9360498863923226,-0.9,False,390.0,744.0,0.0,256.0,1
511,511,-0.6977491755927396,-0.7,False,290.0,738.0,0.0,462.0,1
512,512,0.363941990826407,0.4,True,320.0,917.0,1.0,853.0,1
513,513,0.8969320145564983,0.9,True,429.0,834.0,1.0,117.0,1
514,514,0.4403162502161011,0.4,True,418.0,843.0,1.0,329.0,1
515,515,-0.6278441009683291,-0.6,False,350.0,959.0,0.0,681.0,1
516,516,-0.12458697809285724,-0.1,False,385.0,529.0,0.0,3746.0,1
517,517,0.9891592796942292,1.0,True,254.0,701.0,1.0,395.0,1
518,518,-0.9230412244741328,-0.9,False,356.0,616.0,0.0,218.0,1
519,519,0.5979111986812047,0.6,True,450.0,791.0,1.0,229.0,1
520,520,0.2789486889491335,0.3,True,291.0,775.0,1.0,294.0,1
521,521,0.6304162682867518,0.6,True,479.0,917.0,1.0,504.0,1
522,522,0.6122688472240037,0.6,True,311.0,776.0,1.0,813.0,1
523,523,-0.34161062606037107,-0.3,False,322.0,742.0,0.0,1186.0,1
524,524,0.614259374815691,0.6,True,437.0,519.0,1.0,604.0,1
525,525,-0.4045517815098141,-0.4,False,289.0,974.0,0.0,1097.0,1
526,526,0.20451229059686793,0.2,True,468.0,898.0,1.0,894.0,1
527,527,0.3141232812644996,0.3,True,360.0,908.0,1.0,322.0,1
528,528,0.43863979962635047,0.4,True,495.0,518.0,1.0,1897.0,1
529,529,-0.19746614842011834,-0.2,False,359.0,644.0,0.0,2007.0,1
530,530,0.6933942489273819,0.7,True,397.0,960.0,1.0,303.0,1
531,531,0.24571830991858512,0.2,True,352.0,570.0,1.0,1278.0,1
532,532,0.692686888454848,0.7,True,487.0,890.0,1.0,183.0,1
533,533,-0.46283501055958065,-0.5,False,335.0,624.0,0.0,721.0,1
534,534,0.9916066324889734,1.0,True,267.0,500.0,1.0,623.0,1
535,535,0.5387890962334154,0.5,True,492.0,834.0,1.0,104.0,1
536,536,-0.011588412711589502,-0.0,False,474.0,918.0,1.0,3608.0,0
537,537,-0.04247962084705792,-0.0,False,432.0,560.0,1.0,4008.0,0
538,538,-0.045675274696105994,-0.0,False,264.0,859.0,0.0,2477.0,1
539,539,-0.9078818287300654,-0.9,False,261.0,597.0,0.0,332.0,1
540,540,0.24555276355431177,0.2,True,328.0,799.0,1.0,1343.0,1
541,541,0.6631666109867298,0.7,True,269.0,588.0,1.0,343.0,1
542,542,0.320684402676666,0.3,True,399.0,669.0,1.0,3082.0,1
543,543,0.8916067078682213,0.9,True,386.0,990.0,1.0,204.0,1
544,544,0.3222192466287406,0.3,True,324.0,899.0,1.0,377.0,1
545,545,-0.3997302054829037,-0.4,False,499.0,872.0,0.0,1189.0,1
546,546,-0.05252304257449403,-0.1,False,343.0,532.0,0.0,4125.0,1
547,547,0.18881422102419476,0.2,True,363.0,848.0,1.0,1909.0,1
548,548,0.7331190797384022,0.7,True,345.0,936.0,1.0,199.0,1
549,549,-0.4205369222412003,-0.4,False,390.0,770.0,0.0,910.0,1
550,550,0.2820134654410771,0.3,True,274.0,538.0,1.0,2838.0,1
551,551,-0.3663539262596722,-0.4,False,357.0,938.0,0.0,835.0,1
552,552,0.8254149302703757,0.8,True,289.0,937.0,1.0,144.0,1
553,553,0.41234210674236893,0.4,True,268.0,679.0,1.0,1223.0,1
554,554,0.2681636611515874,0.3,True,355.0,897.0,1.0,848.0,1
555,555,0.3992143924610607,0.4,True,314.0,545.0,1.0,1471.0,1
556,556,0.047644305208895066,0.0,True,384.0,949.0,0.0,407.0,0
557,557,-0.5356711792208984,-0.5,False,463.0,885.0,0.0,412.0,1
558,558,-0.5630846414123074,-0.6,False,339.0,646.0,0.0,965.0,1
559,559,-0.3595614088978898,-0.4,False,393.0,997.0,0.0,2200.0,1
560,560,-0.6161958249166881,-0.6,False,433.0,890.0,0.0,747.0,1
561,561,0.4304974738892886,0.4,True,461.0,943.0,1.0,1506.0,1
562,562,-0.9735137631598827,-1.0,False,264.0,618.0,0.0,358.0,1
563,563,-0.9923520254155849,-1.0,False,384.0,990.0,0.0,196.0,1
564,564,0.9908508292451896,1.0,True,345.0,833.0,1.0,242.0,1
565,565,-0.9481560882870246,-0.9,False,428.0,901.0,0.0,531.0,1
566,566,-0.43850913367102473,-0.4,False,492.0,891.0,0.0,2847.0,1
567,567,0.9279131343487914,0.9,True,470.0,959.0,1.0,271.0,1
568,568,0.9189724697719706,0.9,True,358.0,908.0,1.0,174.0,1
569,569,-0.3816000011875096,-0.4,False,478.0,506.0,0.0,3536.0,1
570,570,-0.4170321219279187,-0.4,False,379.0,828.0,0.0,1793.0,1
571,571,0.3778766654111996,0.4,True,289.0,656.0,1.0,555.0,1
572,572,-0.6716550266367969,-0.7,False,266.0,591.0,0.0,153.0,1
573,573,0.22401847834138744,0.2,True,307.0,773.0,1.0,1780.0,1
574,574,0.03469699445280727,0.0,True,285.0,995.0,1.0,3330.0,1
575,575,-0.9984561014940845,-1.0,False,392.0,577.0,0.0,311.0,1
576,576,0.339633840462096,0.3,True,322.0,700.0,1.0,2438.0,1
577,577,0.6171846465759001,0.6,True,375.0,811.0,1.0,964.0,1
578,578,-0.6217952180322777,-0.6,False,321.0,626.0,0.0,1563.0,1
579,579,0.4688901912221757,0.5,True,342.0,598.0,1.0,1340.0,1
580,580,0.4890100452500348,0.5,True,350.0,698.0,1.0,802.0,1
581,581,-0.8926906776531423,-0.9,False,358.0,758.0,0.0,424.0,1
582,582,0.4553683685541603,0.5,True,379.0,514.0,1.0,547.0,1
583,583,0.5492703466113862,0.5,True,403.0,910.0,1.0,157.0,1
584,584,0.27351651625532347,0.3,True,324.0,811.0,1.0,3865.0,1
585,585,0.8609924231017021,0.9,True,280.0,565.0,1.0,895.0,1
586,586,0.5346065910832452,0.5,True,476.0,925.0,1.0,419.0,1
587,587,-0.024949886769849217,-0.0,False,431.0,636.0,1.0,3633.0,0
588,588,0.2142060235425871,0.2,True,493.0,934.0,1.0,2333.0,1
589,589,-0.7634884408574454,-0.8,False,350.0,985.0,0.0,1075.0,1
590,590,0.8063032031014494,0.8,True,288.0,571.0,1.0,1421.0,1
591,591,0.2419205733789893,0.2,True,397.0,737.0,1.0,656.0,1
592,592,0.15962855782961394,0.2,True,273.0,576.0,1.0,2121.0,1
593,593,-0.136839362060734,-0.1,False,316.0,646.0,0.0,4038.0,1
594,594,-0.7908182358196878,-0.8,False,318.0,657.0,0.0,165.0,1
595,595,-0.9788744030569327,-1.0,False,434.0,748.0,0.0,168.0,1
596,596,0.09995222271451043,0.1,True,446.0,868.0,1.0,1006.0,1
597,597,-0.957562123656104,-1.0,False,408.0,592.0,0.0,240.0,1
598,598,0.6073995342486689,0.6,True,388.0,763.0,1.0,2629.0,1
599,599,0.16825695211949077,0.2,True,415.0,866.0,1.0,2219.0,1
600,600,-0.04672781529947723,-0.0,False,331.0,844.0,1.0,2345.0,0
601,601,-0.666550124397068,-0.7,False,457.0,768.0,0.0,275.0,1
602,602,0.24394794317397017,0.2,True,327.0,891.0,1.0,3782.0,1
603,603,-0.7941555164249279,-0.8,False,448.0,766.0,0.0,616.0,1
604,604,0.33916447506382275,0.3,True,310.0,936.0,1.0,1074.0,1
605,605,-0.8717747437806196,-0.9,False,435.0,545.0,0.0,150.0,1
606,606,0.8800269025828669,0.9,True,481.0,723.0,1.0,306.0,1
607,607,-0.8498905040239071,-0.8,False,479.0,664.0,0.0,567.0,1
608,608,0.18547624383762007,0.2,True,416.0,763.0,0.0,751.0,0
609,609,-0.2853082939929341,-0.3,False,316.0,837.0,0.0,2717.0,1
610,610,-0.5064654269927062,-0.5,False,257.0,534.0,0.0,1059.0,1
611,611,-0.09089833559322247,-0.1,False,459.0,693.0,0.0,1168.0,1
612,612,0.4777083937203861,0.5,True,310.0,603.0,1.0,267.0,1
613,613,0.28939339575236245,0.3,True,418.0,582.0,1.0,1300.0,1
614,614,-0.9536428017083152,-1.0,False,475.0,921.0,0.0,284.0,1
615,615,-0.979014315258,-1.0,False,406.0,533.0,0.0,191.0,1
616,616,-0.9518448066599376,-1.0,False,309.0,757.0,0.0,334.0,1
617,617,-0.22267880933056272,-0.2,False,361.0,864.0,0.0,1285.0,1
618,618,0.6616068396099881,0.7,True,355.0,786.0,1.0,799.0,1
619,619,0.8755722255880243,0.9,True,259.0,841.0,1.0,300.0,1
620,620,0.6250722540484328,0.6,True,272.0,578.0,1.0,920.0,1
621,621,0.8996676826421717,0.9,True,368.0,716.0,1.0,126.0,1
622,622,0.3248214403004779,0.3,True,305.0,508.0,1.0,997.0,1
623,623,-0.2433975391851113,-0.2,False,371.0,709.0,0.0,3920.0,1
624,624,0.4289347241197976,0.4,True,398.0,779.0,1.0,2293.0,1
625,625,-0.4010537810947432,-0.4,False,348.0,560.0,0.0,1312.0,1
626,626,0.2968954531944168,0.3,True,344.0,530.0,1.0,596.0,1
627,627,0.2500292442144041,0.3,True,479.0,936.0,1.0,2905.0,1
628,628,0.13710978508890048,0.1,True,350.0,873.0,1.0,1157.0,1
629,629,0.47275635082197054,0.5,True,359.0,534.0,1.0,1287.0,1
630,630,-0.169495236797653,-0.2,False,405.0,680.0,0.0,1855.0,1
631,631,-0.34655373728103567,-0.3,False,487.0,939.0,0.0,1524.0,1
632,632,-0.7224863500801033,-0.7,False,327.0,999.0,0.0,484.0,1
633,633,0.4743968532116085,0.5,True,442.0,911.0,1.0,337.0,1
634,634,0.8015609403621045,0.8,True,265.0,824.0,1.0,501.0,1
635,635,0.3308993925553865,0.3,True,442.0,596.0,1.0,912.0,1
636,636,0.8227896132875505,0.8,True,336.0,784.0,1.0,280.0,1
637,637,-0.24602099730052807,-0.2,False,292.0,772.0,0.0,1446.0,1
638,638,0.23988629803850214,0.2,True,346.0,568.0,1.0,2146.0,1
639,639,0.5168877745146248,0.5,True,336.0,625.0,1.0,939.0,1
640,640,0.6688663429446098,0.7,True,453.0,943.0,1.0,1644.0,1
641,641,-0.28696551313045826,-0.3,False,453.0,740.0,0.0,1827.0,1
642,642,-0.8024080800175017,-0.8,False,320.0,679.0,0.0,611.0,1
643,643,0.8521359099324413,0.9,True,433.0,753.0,1.0,154.0,1
644,644,-0.16985207643268851,-0.2,False,485.0,708.0,1.0,1527.0,0
645,645,-0.396998978223601,-0.4,False,362.0,619.0,0.0,559.0,1
646,646,-0.49921861050066774,-0.5,False,389.0,641.0,0.0,990.0,1
647,647,-0.8470936267248197,-0.8,False,255.0,769.0,0.0,506.0,1
648,648,-0.7068922112942322,-0.7,False,297.0,732.0,0.0,201.0,1
649,649,-0.5076035646972545,-0.5,False,401.0,778.0,0.0,441.0,1
650,650,0.7728577876035203,0.8,True,494.0,860.0,1.0,166.0,1
651,651,0.7759968398811383,0.8,True,359.0,789.0,1.0,232.0,1
652,652,0.257802057633465,0.3,True,496.0,676.0,1.0,1238.0,1
653,653,-0.7626626401157008,-0.8,False,426.0,902.0,0.0,442.0,1
654,654,0.5004422288025745,0.5,True,495.0,851.0,1.0,264.0,1
655,655,-0.7334259146038427,-0.7,False,356.0,840.0,0.0,364.0,1
656,656,0.9428624735324902,0.9,True,461.0,542.0,1.0,637.0,1
657,657,0.24819917512845513,0.2,True,448.0,686.0,1.0,3186.0,1
658,658,-0.27927174933478716,-0.3,False,490.0,896.0,0.0,194.0,1
659,659,0.9151336572167137,0.9,True,300.0,706.0,1.0,604.0,1
660,660,-0.7284583444993487,-0.7,False,284.0,738.0,0.0,198.0,1
661,661,0.05300051299944686,0.1,True,414.0,731.0,1.0,3855.0,1
662,662,0.5568064349788084,0.6,True,303.0,543.0,1.0,1114.0,1
663,663,-0.31320662730955884,-0.3,False,350.0,684.0,0.0,3966.0,1
664,664,0.9267529030724952,0.9,True,432.0,510.0,1.0,138.0,1
665,665,-0.7777576241077686,-0.8,False,377.0,987.0,0.0,686.0,1
666,666,0.09573324369680436,0.1,True,304.0,572.0,1.0,2564.0,1
667,667,-0.5412411824707011,-0.5,False,333.0,799.0,0.0,1608.0,1
668,668,-0.10981768239966638,-0.1,False,372.0,577.0,0.0,3401.0,1
669,669,0.8525234223039655,0.9,True,285.0,573.0,1.0,182.0,1
670,670,-0.5089108558495514,-0.5,False,442.0,931.0,0.0,257.0,1
671,671,0.1651335439103927,0.2,True,305.0,905.0,1.0,3790.0,1
672,672,0.7329088092127811,0.7,True,483.0,698.0,1.0,389.0,1
673,673,-0.7478146567428912,-0.7,False,319.0,751.0,0.0,70.0,1
674,674,-0.8244140917263225,-0.8,False,471.0,583.0,0.0,376.0,1
675,675,0.36146809030683413,0.4,True,373.0,997.0,1.0,130.0,1
676,676,-0.6046778794867687,-0.6,False,370.0,788.0,0.0,242.0,1
677,677,-0.32056439796418545,-0.3,False,338.0,656.0,0.0,4006.0,1
678,678,0.9864463623178013,1.0,True,347.0,580.0,1.0,263.0,1
679,679,0.9054518596605212,0.9,True,309.0,994.0,1.0,227.0,1
680,680,-0.9404304698683117,-0.9,False,409.0,979.0,0.0,502.0,1
681,681,0.9715192083830331,1.0,True,340.0,888.0,1.0,252.0,1
682,682,0.9862304973652334,1.0,True,276.0,990.0,1.0,74.0,1
683,683,-0.6318430191577187,-0.6,False,290.0,744.0,0.0,156.0,1
684,684,-0.37506632574054444,-0.4,False,263.0,847.0,0.0,340.0,1
685,685,-0.9163865880679929,-0.9,False,354.0,968.0,0.0,218.0,1
686,686,-0.9743497896520175,-1.0,False,451.0,857.0,0.0,482.0,1
687,687,-0.13890097228336895,-0.1,False,263.0,713.0,0.0,1084.0,1
688,688,-0.8815306454234464,-0.9,False,251.0,731.0,0.0,498.0,1
689,689,-0.027565795225973133,-0.0,False,332.0,561.0,1.0,4107.0,0
690,690,0.0017160285204282921,0.0,True,365.0,940.0,1.0,3695.0,1
691,691,0.20445096747973612,0.2,True,324.0,631.0,1.0,575.0,1
692,692,-0.377908214329306,-0.4,False,385.0,732.0,0.0,173.0,1
693,693,0.8217818564419583,0.8,True,260.0,870.0,1.0,950.0,1
694,694,-0.552733305370577,-0.6,False,440.0,829.0,0.0,641.0,1
695,695,-0.270413147499067,-0.3,False,356.0,516.0,0.0,648.0,1
696,696,-0.6365650393461213,-0.6,False,354.0,790.0,0.0,1076.0,1
697,697,0.20932655868221195,0.2,True,303.0,905.0,1.0,2232.0,1
698,698,-0.8378809813771446,-0.8,False,411.0,686.0,0.0,203.0,1
699,699,-0.0797182308730009,-0.1,False,352.0,807.0,0.0,2821.0,1
700,700,0.9279044224992858,0.9,True,385.0,843.0,1.0,522.0,1
701,701,-0.08968342287242459,-0.1,False,471.0,668.0,0.0,3861.0,1
702,702,0.35975044628964103,0.4,True,322.0,619.0,1.0,1779.0,1
703,703,-0.48565875688773885,-0.5,False,440.0,641.0,0.0,1799.0,1
704,704,-0.5574049375144496,-0.6,False,465.0,687.0,0.0,818.0,1
705,705,-0.5468187428549407,-0.5,False,286.0,617.0,0.0,607.0,1
706,706,0.4616474761150029,0.5,True,274.0,922.0,1.0,814.0,1
707,707,-0.033236651459099376,-0.0,False,379.0,849.0,0.0,3772.0,1
708,708,0.23494737309298364,0.2,True,281.0,873.0,1.0,3846.0,1
709,709,-0.15736673574619853,-0.2,False,313.0,939.0,1.0,888.0,0
710,710,-0.9053861054085974,-0.9,False,474.0,521.0,0.0,375.0,1
711,711,-0.6768818677664175,-0.7,False,371.0,712.0,0.0,327.0,1
712,712,0.8327161972106116,0.8,True,464.0,805.0,1.0,321.0,1
713,713,-0.9357187659050739,-0.9,False,386.0,637.0,0.0,327.0,1
714,714,0.3457602311980277,0.3,True,453.0,891.0,1.0,736.0,1
715,715,0.21298504903382698,0.2,True,365.0,833.0,1.0,1452.0,1
716,716,-0.5992202433179807,-0.6,False,271.0,826.0,0.0,833.0,1
717,717,0.208526236347359,0.2,True,425.0,952.0,1.0,3623.0,1
718,718,-0.7074189790440031,-0.7,False,457.0,549.0,0.0,404.0,1
719,719,-0.7814392830536443,-0.8,False,373.0,560.0,0.0,657.0,1
720,720,-0.23118898168556057,-0.2,False,267.0,750.0,0.0,803.0,1
721,721,0.5987235172804171,0.6,True,417.0,544.0,1.0,259.0,1
722,722,0.44645305460739126,0.4,True,326.0,737.0,1.0,687.0,1
723,723,-0.9910386917625142,-1.0,False,406.0,943.0,0.0,291.0,1
724,724,-0.8024492493714424,-0.8,False,488.0,699.0,0.0,453.0,1
725,725,-0.9998576319556369,-1.0,False,394.0,616.0,0.0,500.0,1
726,726,0.08142706735574157,0.1,True,401.0,569.0,0.0,4030.0,0
727,727,0.2254026273263805,0.2,True,385.0,913.0,1.0,3502.0,1
728,728,0.8567970359128523,0.9,True,298.0,513.0,1.0,259.0,1
729,729,-0.8119261848768329,-0.8,False,280.0,631.0,0.0,89.0,1
730,730,-0.7241679777401548,-0.7,False,286.0,559.0,0.0,325.0,1
731,731,0.11201820583089739,0.1,True,416.0,872.0,0.0,1262.0,0
732,732,0.7398251581138835,0.7,True,415.0,522.0,1.0,203.0,1
733,733,0.9643690858067857,1.0,True,378.0,658.0,1.0,234.0,1
734,734,-0.24017824077312944,-0.2,False,338.0,706.0,0.0,936.0,1
735,735,0.4263856664493404,0.4,True,253.0,526.0,1.0,541.0,1
736,736,0.3571773890299901,0.4,True,395.0,739.0,1.0,626.0,1
737,737,-0.6734651518593839,-0.7,False,451.0,627.0,0.0,862.0,1
738,738,-0.43543131402979784,-0.4,False,333.0,798.0,0.0,649.0,1
739,739,0.9456850970721913,0.9,True,302.0,590.0,1.0,318.0,1
740,740,0.6602796657048842,0.7,True,276.0,774.0,1.0,410.0,1
741,741,-0.39512269683529677,-0.4,False,298.0,712.0,0.0,700.0,1
742,742,-0.9429494116329911,-0.9,False,442.0,895.0,0.0,193.0,1
743,743,0.5306057737576415,0.5,True,404.0,911.0,1.0,3125.0,1
744,744,-0.7924266335311168,-0.8,False,344.0,601.0,0.0,165.0,1
745,745,0.21554458894551431,0.2,True,337.0,995.0,1.0,608.0,1
746,746,-0.48181601679060515,-0.5,False,386.0,734.0,0.0,1160.0,1
747,747,-0.1634832821297072,-0.2,False,264.0,866.0,0.0,510.0,1
748,748,0.41622887466270475,0.4,True,386.0,511.0,1.0,1403.0,1
749,749,-0.40751879721316286,-0.4,False,377.0,783.0,0.0,2880.0,1
750,750,-0.9617624127243285,-1.0,False,497.0,705.0,0.0,168.0,1
751,751,0.2807308385839171,0.3,True,443.0,842.0,1.0,295.0,1
752,752,0.14401539202471336,0.1,True,291.0,712.0,1.0,917.0,1
753,753,-0.3775727867252603,-0.4,False,397.0,902.0,0.0,1541.0,1
754,754,-0.7197739904472282,-0.7,False,491.0,670.0,0.0,199.0,1
755,755,0.25903910255302764,0.3,True,347.0,849.0,1.0,1534.0,1
756,756,0.09376924517174867,0.1,True,366.0,725.0,1.0,1859.0,1
757,757,-0.527725387197187,-0.5,False,446.0,796.0,0.0,808.0,1
758,758,-0.5989445132096274,-0.6,False,389.0,844.0,0.0,507.0,1
759,759,-0.21042402584395248,-0.2,False,297.0,710.0,0.0,783.0,1
760,760,-0.1212470916464039,-0.1,False,456.0,867.0,0.0,1757.0,1
761,761,-0.12645020169680032,-0.1,False,255.0,898.0,0.0,2267.0,1
762,762,-0.51690676052051,-0.5,False,479.0,553.0,0.0,468.0,1
763,763,-0.5965270285178379,-0.6,False,273.0,992.0,0.0,1475.0,1
764,764,-0.8450877435088011,-0.8,False,496.0,724.0,0.0,390.0,1
765,765,0.47900708608021025,0.5,True,467.0,992.0,1.0,1541.0,1
766,766,0.7209368492394803,0.7,True,334.0,720.0,1.0,646.0,1
767,767,0.6329200912596207,0.6,True,345.0,528.0,1.0,1017.0,1
768,768,0.149139730591475,0.1,True,253.0,515.0,0.0,4232.0,0
769,769,-0.2683477259091236,-0.3,False,338.0,842.0,0.0,3640.0,1
770,770,-0.09230617980840639,-0.1,False,450.0,706.0,1.0,3844.0,0
771,771,-0.2864368094581138,-0.3,False,322.0,986.0,0.0,692.0,1
772,772,-0.6825963717681405,-0.7,False,372.0,503.0,0.0,535.0,1
773,773,-0.10430845470654826,-0.1,False,475.0,504.0,0.0,4021.0,1
774,774,-0.5550993488537588,-0.6,False,372.0,808.0,0.0,570.0,1
775,775,0.6932981816693486,0.7,True,310.0,537.0,1.0,193.0,1
776,776,0.6505704158021919,0.7,True,306.0,713.0,1.0,651.0,1
777,777,-0.20408245729967045,-0.2,False,392.0,710.0,0.0,3588.0,1
778,778,-0.3924051602965941,-0.4,False,441.0,557.0,0.0,1242.0,1
779,779,0.846065344521151,0.8,True,391.0,520.0,1.0,209.0,1
780,780,0.6924213176270586,0.7,True,428.0,641.0,1.0,401.0,1
781,781,-0.7521218722878209,-0.8,False,333.0,692.0,0.0,375.0,1
782,782,-0.2590744378983687,-0.3,False,344.0,568.0,1.0,4088.0,0
783,783,-0.16876403201367118,-0.2,False,492.0,792.0,1.0,2576.0,0
784,784,0.11539361160261108,0.1,True,497.0,981.0,0.0,112.0,0
785,785,-0.26883183609123495,-0.3,False,258.0,711.0,0.0,881.0,1
786,786,-0.690467520551366,-0.7,False,305.0,699.0,0.0,146.0,1
787,787,-0.5361676270068871,-0.5,False,294.0,739.0,0.0,427.0,1
788,788,0.7772235678160213,0.8,True,432.0,845.0,1.0,363.0,1
789,789,-0.004099407540586242,-0.0,False,262.0,748.0,1.0,710.0,0
790,790,-0.770031273107787,-0.8,False,310.0,945.0,0.0,205.0,1
791,791,0.07175846046652845,0.1,True,467.0,627.0,1.0,3876.0,1
792,792,0.9888096090707574,1.0,True,396.0,996.0,1.0,218.0,1
793,793,-0.5353980033116501,-0.5,False,436.0,977.0,0.0,317.0,1
794,794,-0.6870562953981714,-0.7,False,442.0,832.0,0.0,336.0,1
795,795,-0.647221701590359,-0.6,False,315.0,766.0,0.0,149.0,1
796,796,0.1527783614332494,0.2,True,328.0,975.0,1.0,3697.0,1
797,797,0.44562298047335624,0.4,True,456.0,515.0,1.0,1069.0,1
798,798,0.2822667594396655,0.3,True,403.0,992.0,1.0,745.0,1
799,799,0.020019549607337206,0.0,True,484.0,715.0,1.0,3801.0,1
800,800,-0.5702489874462582,-0.6,False,492.0,790.0,0.0,538.0,1
801,801,-0.2951396254772991,-0.3,False,441.0,534.0,0.0,595.0,1
802,802,-0.2859657199748453,-0.3,False,256.0,816.0,0.0,1788.0,1
803,803,0.3074555907666914,0.3,True,396.0,540.0,1.0,3094.0,1
804,804,-0.9326594517826297,-0.9,False,257.0,860.0,0.0,483.0,1
805,805,-0.40608402184672854,-0.4,False,354.0,764.0,0.0,762.0,1
806,806,-0.49536626452122157,-0.5,False,399.0,513.0,0.0,2348.0,1
807,807,-0.2100233515857226,-0.2,False,271.0,913.0,0.0,1036.0,1
808,808,0.024883064366031604,0.0,True,374.0,704.0,1.0,1502.0,1
809,809,0.1505033522194601,0.2,True,366.0,776.0,1.0,3858.0,1
810,810,0.9080247438889268,0.9,True,322.0,606.0,1.0,252.0,1
811,811,0.46079119536035984,0.5,True,469.0,773.0,1.0,258.0,1
812,812,-0.02225963883990789,-0.0,False,476.0,964.0,0.0,3560.0,1
813,813,0.6459142456190237,0.6,True,347.0,546.0,1.0,467.0,1
814,814,-0.7159687217094148,-0.7,False,436.0,891.0,0.0,153.0,1
815,815,-0.6894402666804877,-0.7,False,321.0,930.0,0.0,1229.0,1
816,816,0.766132514301967,0.8,True,370.0,594.0,1.0,256.0,1
817,817,-0.08380075555929589,-0.1,False,400.0,999.0,1.0,3601.0,0
818,818,-0.6702199626885528,-0.7,False,485.0,862.0,0.0,423.0,1
819,819,-0.6736130473325526,-0.7,False,306.0,511.0,0.0,253.0,1
820,820,-0.9483487735573943,-0.9,False,406.0,732.0,0.0,172.0,1
821,821,0.852772668874211,0.9,True,443.0,741.0,1.0,396.0,1
822,822,-0.7707274567630813,-0.8,False,424.0,949.0,0.0,1027.0,1
823,823,0.033491782964636396,0.0,True,316.0,942.0,0.0,3742.0,0
824,824,-0.8138948191398663,-0.8,False,411.0,666.0,0.0,473.0,1
825,825,-0.2775608050679943,-0.3,False,487.0,979.0,0.0,1984.0,1
826,826,-0.20261926269637853,-0.2,False,382.0,639.0,0.0,3069.0,1
827,827,0.9122711690073217,0.9,True,412.0,698.0,1.0,170.0,1
828,828,0.962949653372404,1.0,True,389.0,815.0,1.0,616.0,1
829,829,0.391445153554866,0.4,True,291.0,891.0,1.0,2808.0,1
830,830,0.5843883183257348,0.6,True,316.0,664.0,1.0,1450.0,1
831,831,-0.44265248975585325,-0.4,False,406.0,992.0,0.0,3252.0,1
832,832,-0.9082893703788084,-0.9,False,455.0,668.0,0.0,197.0,1
833,833,0.11714891086415857,0.1,True,298.0,801.0,1.0,2131.0,1
834,834,-0.7141023310653005,-0.7,False,341.0,931.0,0.0,718.0,1
835,835,-0.5753678182167736,-0.6,False,308.0,742.0,0.0,290.0,1
836,836,-0.7414960552709706,-0.7,False,341.0,926.0,0.0,393.0,1
837,837,-0.45232181746261424,-0.5,False,431.0,542.0,0.0,577.0,1
838,838,-0.8778617134356252,-0.9,False,423.0,958.0,0.0,299.0,1
839,839,0.4040192181574753,0.4,True,330.0,702.0,1.0,318.0,1
840,840,0.14765118718257142,0.1,True,413.0,622.0,1.0,1315.0,1
841,841,-0.03420520238464664,-0.0,False,479.0,632.0,0.0,3889.0,1
842,842,-0.8160219902497003,-0.8,False,264.0,930.0,0.0,186.0,1
843,843,0.6338977611181082,0.6,True,446.0,924.0,1.0,490.0,1
844,844,0.5777240661345748,0.6,True,251.0,620.0,1.0,709.0,1
845,845,-0.7258894402587441,-0.7,False,484.0,749.0,0.0,237.0,1
846,846,0.9639838706738566,1.0,True,333.0,949.0,1.0,208.0,1
847,847,0.11554076073648512,0.1,True,486.0,615.0,1.0,2629.0,1
848,848,0.0007816160830407259,0.0,True,481.0,804.0,0.0,1875.0,0
849,849,0.2929179951576941,0.3,True,359.0,932.0,1.0,1319.0,1
850,850,-0.6261408818967384,-0.6,False,286.0,593.0,0.0,1081.0,1
851,851,4.9257732825269684e-05,0.0,True,477.0,564.0,1.0,1859.0,1
852,852,-0.08544957379614937,-0.1,False,391.0,831.0,0.0,1348.0,1
853,853,-0.06415297109559703,-0.1,False,365.0,905.0,0.0,3730.0,1
854,854,0.6828156948673578,0.7,True,295.0,900.0,1.0,865.0,1
855,855,-0.4832369548575586,-0.5,False,365.0,767.0,0.0,558.0,1
856,856,0.7184393510504163,0.7,True,413.0,785.0,1.0,182.0,1
857,857,0.3412909598550218,0.3,True,367.0,567.0,1.0,1446.0,1
858,858,0.37330239638131335,0.4,True,463.0,689.0,1.0,378.0,1
859,859,0.8520555981738565,0.9,True,297.0,878.0,1.0,245.0,1
860,860,-0.3365083446582722,-0.3,False,404.0,578.0,0.0,798.0,1
861,861,-0.41375375869478614,-0.4,False,482.0,962.0,0.0,716.0,1
862,862,-0.2791518010491796,-0.3,False,447.0,776.0,0.0,557.0,1
863,863,-0.8594741744817864,-0.9,False,391.0,928.0,0.0,561.0,1
864,864,-0.21969695298004033,-0.2,False,324.0,631.0,0.0,865.0,1
865,865,-0.055913468443290704,-0.1,False,457.0,851.0,1.0,612.0,0
866,866,0.8125017799849745,0.8,True,416.0,658.0,1.0,286.0,1
867,867,-0.023043289033111813,-0.0,False,265.0,945.0,0.0,3790.0,1
868,868,-0.4441690518208443,-0.4,False,455.0,653.0,0.0,452.0,1
869,869,0.38087000157377404,0.4,True,449.0,646.0,1.0,2985.0,1
870,870,-0.9660459292946111,-1.0,False,352.0,649.0,0.0,209.0,1
871,871,0.176596236936424,0.2,True,325.0,994.0,1.0,1011.0,1
872,872,-0.9734077383276225,-1.0,False,442.0,732.0,0.0,176.0,1
873,873,0.9947655519853789,1.0,True,336.0,616.0,1.0,168.0,1
874,874,0.856612960238126,0.9,True,337.0,749.0,1.0,884.0,1
875,875,-0.3025228386096226,-0.3,False,480.0,990.0,0.0,2220.0,1
876,876,0.1831200428450035,0.2,True,341.0,630.0,1.0,4029.0,1
877,877,-0.2921296804032103,-0.3,False,323.0,552.0,0.0,935.0,1
878,878,-0.8447119188185743,-0.8,False,361.0,569.0,0.0,740.0,1
879,879,-0.8787152316618674,-0.9,False,383.0,513.0,0.0,574.0,1
880,880,-0.7939051458311901,-0.8,False,412.0,922.0,0.0,626.0,1
881,881,0.8215237786228293,0.8,True,345.0,516.0,1.0,329.0,1
882,882,0.9326078693534381,0.9,True,373.0,998.0,1.0,639.0,1
883,883,-0.47883745868000105,-0.5,False,478.0,700.0,0.0,1142.0,1
884,884,-0.538575729288697,-0.5,False,462.0,628.0,0.0,650.0,1
885,885,-0.34156191342767217,-0.3,False,395.0,673.0,0.0,492.0,1
886,886,-0.6832938421683539,-0.7,False,302.0,773.0,0.0,305.0,1
887,887,0.39799896311636673,0.4,True,253.0,729.0,1.0,348.0,1
888,888,-0.27180362339449093,-0.3,False,490.0,668.0,0.0,72.0,1
889,889,0.05639633027027191,0.1,True,327.0,688.0,1.0,2215.0,1
890,890,-0.4759141110897338,-0.5,False,448.0,669.0,0.0,1843.0,1
891,891,-0.6882895983569723,-0.7,False,498.0,652.0,0.0,410.0,1
892,892,-0.5536685575084344,-0.6,False,285.0,753.0,0.0,122.0,1
893,893,-0.385755528286684,-0.4,False,457.0,661.0,0.0,3342.0,1
894,894,-0.2920664918916833,-0.3,False,435.0,985.0,0.0,1260.0,1
895,895,-0.6168715947337611,-0.6,False,360.0,795.0,0.0,725.0,1
896,896,0.6564485361673846,0.7,True,443.0,925.0,1.0,252.0,1
897,897,-0.8438278687336933,-0.8,False,341.0,860.0,0.0,779.0,1
898,898,0.13883145326084945,0.1,True,318.0,992.0,1.0,2260.0,1
899,899,-0.3320878334135011,-0.3,False,305.0,988.0,0.0,1407.0,1
900,900,-0.04076796410593664,-0.0,False,354.0,827.0,1.0,2919.0,0
901,901,-0.41301773280257836,-0.4,False,295.0,750.0,0.0,505.0,1
902,902,0.9654200675640963,1.0,True,328.0,574.0,1.0,428.0,1
903,903,-0.06215044120917801,-0.1,False,303.0,554.0,0.0,1223.0,1
904,904,0.7217112923018896,0.7,True,452.0,536.0,1.0,862.0,1
905,905,0.7852729337453652,0.8,True,394.0,844.0,1.0,362.0,1
906,906,0.671421877618988,0.7,True,358.0,911.0,1.0,761.0,1
907,907,0.46091148493974976,0.5,True,400.0,600.0,1.0,480.0,1
908,908,-0.731157946743658,-0.7,False,308.0,639.0,0.0,1133.0,1
909,909,0.7075468030500891,0.7,True,452.0,552.0,1.0,636.0,1
910,910,0.791145111380319,0.8,True,490.0,922.0,1.0,478.0,1
911,911,-0.6470036203483207,-0.6,False,373.0,786.0,0.0,461.0,1
912,912,0.07277877723260096,0.1,True,314.0,874.0,1.0,122.0,1
913,913,0.9097900728739965,0.9,True,402.0,562.0,1.0,596.0,1
914,914,0.4229193735849346,0.4,True,491.0,958.0,1.0,451.0,1
915,915,-0.04862631889870994,-0.0,False,285.0,702.0,1.0,2213.0,0
916,916,-0.4124120789974315,-0.4,False,459.0,565.0,0.0,646.0,1
917,917,0.893201786688697,0.9,True,376.0,784.0,1.0,470.0,1
918,918,0.8862755421418238,0.9,True,261.0,966.0,1.0,163.0,1
919,919,0.0588402264987149,0.1,True,361.0,628.0,0.0,4011.0,0
920,920,-0.7074551564242468,-0.7,False,269.0,679.0,0.0,672.0,1
921,921,0.8068023241521729,0.8,True,454.0,965.0,1.0,461.0,1
922,922,-0.5169139635296949,-0.5,False,336.0,891.0,0.0,313.0,1
923,923,-0.7915968148687909,-0.8,False,367.0,755.0,0.0,298.0,1
924,924,-0.0735973770190137,-0.1,False,385.0,786.0,0.0,3829.0,1
925,925,0.9535635928739139,1.0,True,252.0,946.0,1.0,252.0,1
926,926,-0.8405117391877459,-0.8,False,279.0,539.0,0.0,342.0,1
927,927,0.6362928547373816,0.6,True,405.0,886.0,1.0,719.0,1
928,928,0.99327347109142,1.0,True,374.0,872.0,1.0,304.0,1
929,929,-0.1434844172980958,-0.1,False,403.0,809.0,0.0,2168.0,1
930,930,0.7798235722088147,0.8,True,432.0,516.0,1.0,422.0,1
931,931,0.5760825629399207,0.6,True,491.0,727.0,1.0,1692.0,1
932,932,0.21393734844765078,0.2,True,261.0,523.0,1.0,2456.0,1
933,933,-0.6678313337264787,-0.7,False,265.0,597.0,0.0,468.0,1
934,934,-0.8042063631074632,-0.8,False,358.0,983.0,0.0,459.0,1
935,935,0.36199065334056213,0.4,True,348.0,592.0,1.0,1390.0,1
936,936,-0.5248506834358859,-0.5,False,400.0,696.0,0.0,634.0,1
937,937,0.20494481075011972,0.2,True,295.0,957.0,1.0,878.0,1
938,938,-0.27365209819149827,-0.3,False,391.0,778.0,0.0,581.0,1
939,939,0.1694750728156924,0.2,True,317.0,867.0,1.0,2586.0,1
940,940,-0.04433282730478583,-0.0,False,337.0,743.0,0.0,2680.0,1
941,941,-0.48180233759675994,-0.5,False,482.0,709.0,0.0,239.0,1
942,942,0.8220906435466848,0.8,True,285.0,776.0,1.0,899.0,1
943,943,0.300075934513669,0.3,True,309.0,910.0,1.0,631.0,1
944,944,-0.601047034276176,-0.6,False,352.0,575.0,0.0,343.0,1
945,945,-0.8110447314826532,-0.8,False,465.0,645.0,0.0,730.0,1
946,946,-0.45700972213773694,-0.5,False,264.0,528.0,0.0,298.0,1
947,947,-0.48492524936926307,-0.5,False,488.0,685.0,0.0,787.0,1
948,948,0.794643352346527,0.8,True,282.0,774.0,1.0,1024.0,1
949,949,0.6383462983842247,0.6,True,483.0,664.0,1.0,103.0,1
950,950,-0.15647482660460277,-0.2,False,409.0,684.0,0.0,3287.0,1
951,951,0.8383305597595561,0.8,True,381.0,887.0,1.0,122.0,1
952,952,0.13182348653957665,0.1,True,285.0,706.0,1.0,309.0,1
953,953,-0.8071735219897644,-0.8,False,309.0,501.0,0.0,80.0,1
954,954,0.8545964050567145,0.9,True,454.0,957.0,1.0,219.0,1
955,955,-0.7006092210803627,-0.7,False,344.0,696.0,0.0,380.0,1
956,956,0.8240552023049668,0.8,True,425.0,799.0,1.0,86.0,1
957,957,-0.07839610389124996,-0.1,False,332.0,558.0,0.0,4110.0,1
958,958,0.7200138014590627,0.7,True,320.0,754.0,1.0,276.0,1
959,959,0.933075880112409,0.9,True,272.0,802.0,1.0,166.0,1
960,960,-0.6477322104673331,-0.6,False,487.0,978.0,0.0,395.0,1
961,961,0.5324274411934242,0.5,True,336.0,646.0,1.0,548.0,1
962,962,-0.5357376583342517,-0.5,False,257.0,748.0,0.0,855.0,1
963,963,-0.6037758589778364,-0.6,False,366.0,797.0,0.0,587.0,1
964,964,-0.5588310871431439,-0.6,False,343.0,886.0,0.0,591.0,1
965,965,-0.1993488178476499,-0.2,False,435.0,506.0,0.0,2359.0,1
966,966,0.6765612019033258,0.7,True,429.0,866.0,1.0,565.0,1
967,967,0.9395721408661943,0.9,True,297.0,652.0,1.0,261.0,1
968,968,-0.05203311119073195,-0.1,False,286.0,704.0,0.0,3950.0,1
969,969,-0.8035185389529891,-0.8,False,349.0,803.0,0.0,308.0,1
970,970,-0.34156802756770266,-0.3,False,272.0,684.0,0.0,934.0,1
971,971,-0.7346987368745446,-0.7,False,280.0,996.0,0.0,994.0,1
972,972,0.6194920795126644,0.6,True,268.0,820.0,1.0,232.0,1
973,973,-0.7825298781684633,-0.8,False,437.0,812.0,0.0,291.0,1
974,974,0.07440331965763214,0.1,True,436.0,656.0,0.0,3908.0,0
975,975,-0.9208777396412169,-0.9,False,299.0,664.0,0.0,137.0,1
976,976,0.05411596811817243,0.1,True,481.0,821.0,1.0,648.0,1
977,977,-0.5657967635299794,-0.6,False,302.0,955.0,0.0,703.0,1
978,978,-0.45352033321215424,-0.5,False,484.0,639.0,0.0,1767.0,1
979,979,0.29738237685429714,0.3,True,376.0,897.0,1.0,967.0,1
980,980,-0.18642810919871455,-0.2,False,384.0,931.0,0.0,425.0,1
981,981,0.5545092578107635,0.6,True,465.0,734.0,1.0,451.0,1
982,982,0.3680962653919915,0.4,True,408.0,825.0,1.0,1597.0,1
983,983,0.9140615566517853,0.9,True,277.0,975.0,1.0,128.0,1
984,984,-0.43801892799796427,-0.4,False,275.0,679.0,0.0,1246.0,1
985,985,0.4730896984249642,0.5,True,398.0,819.0,1.0,1713.0,1
986,986,0.1039157388811498,0.1,True,298.0,557.0,1.0,655.0,1
987,987,0.15677400630485172,0.2,True,449.0,993.0,0.0,3558.0,0
988,988,0.9349166229123389,0.9,True,421.0,777.0,1.0,202.0,1
989,989,-0.3018379698335343,-0.3,False,353.0,590.0,0.0,507.0,1
990,990,-0.029325818613266552,-0.0,False,355.0,872.0,0.0,3603.0,1
991,991,0.9007433771876661,0.9,True,491.0,994.0,1.0,1435.0,1
992,992,-0.29561372339828074,-0.3,False,374.0,672.0,0.0,384.0,1
993,993,0.036987920214207604,0.0,True,315.0,677.0,1.0,2258.0,1
994,994,-0.7008302137232474,-0.7,False,275.0,955.0,0.0,180.0,1
995,995,0.5269826304177805,0.5,True,459.0,820.0,1.0,541.0,1
996,996,-0.44450421768109005,-0.4,False,420.0,607.0,0.0,523.0,1
997,997,-0.14914267005760906,-0.1,False,488.0,672.0,0.0,210.0,1
998,998,0.11323348376557973,0.1,True,282.0,792.0,1.0,666.0,1
999,999,0.9542033658842262,1.0,True,448.0,617.0,1.0,225.0,1
1000,1000,0.04020142128476456,0.0,True,304.0,809.0,1.0,3887.0,1
1001,1001,-0.32687820428682457,-0.3,False,313.0,804.0,0.0,1113.0,1
1002,1002,-0.41288340706121307,-0.4,False,489.0,814.0,0.0,1137.0,1
1003,1003,0.9976649685877206,1.0,True,366.0,853.0,1.0,121.0,1
1004,1004,0.5210960890110703,0.5,True,345.0,777.0,1.0,1798.0,1
1005,1005,0.6338761626541356,0.6,True,253.0,773.0,1.0,334.0,1
1006,1006,0.40626299115842857,0.4,True,378.0,518.0,1.0,624.0,1
1007,1007,-0.6825144259511706,-0.7,False,282.0,598.0,0.0,980.0,1
1008,1008,0.5328351001566365,0.5,True,387.0,993.0,1.0,120.0,1
1009,1009,0.8067298865454242,0.8,True,256.0,956.0,1.0,208.0,1
1010,1010,-0.6233727385402277,-0.6,False,254.0,501.0,0.0,495.0,1
1011,1011,0.0023624803784398907,0.0,True,347.0,929.0,0.0,1924.0,0
1012,1012,-0.357103540794957,-0.4,False,470.0,692.0,0.0,1198.0,1
1013,1013,-0.36871158064142184,-0.4,False,306.0,774.0,0.0,440.0,1
1014,1014,-0.4878509200973815,-0.5,False,422.0,889.0,0.0,599.0,1
1015,1015,-0.3345454686295066,-0.3,False,444.0,500.0,0.0,476.0,1
1016,1016,0.29659874018536647,0.3,True,353.0,960.0,1.0,587.0,1
1017,1017,0.43605552039561624,0.4,True,473.0,885.0,1.0,2262.0,1
1018,1018,0.7818432369417216,0.8,True,251.0,634.0,1.0,195.0,1
1019,1019,-0.8789202171972761,-0.9,False,250.0,743.0,0.0,107.0,1
1020,1020,-0.16267042289475153,-0.2,False,329.0,916.0,0.0,3755.0,1
1021,1021,-0.9008235127263751,-0.9,False,347.0,918.0,0.0,165.0,1
1022,1022,-0.7384009603310342,-0.7,False,352.0,758.0,0.0,1240.0,1
1023,1023,-0.6969721359476588,-0.7,False,387.0,678.0,0.0,465.0,1
1024,1024,-0.6625031953041747,-0.7,False,374.0,926.0,0.0,600.0,1
1025,1025,-0.4811960066266998,-0.5,False,450.0,954.0,0.0,2596.0,1
1026,1026,-0.26642300599228075,-0.3,False,299.0,986.0,0.0,665.0,1
1027,1027,-0.4777918860183026,-0.5,False,374.0,587.0,0.0,359.0,1
1028,1028,-0.2276762908800316,-0.2,False,423.0,949.0,0.0,268.0,1
1029,1029,-0.5974303482187739,-0.6,False,484.0,743.0,0.0,673.0,1
1030,1030,-0.38257118651230404,-0.4,False,452.0,688.0,0.0,700.0,1
1031,1031,0.04379499909400986,0.0,True,425.0,542.0,1.0,923.0,1
1032,1032,0.5717787950990072,0.6,True,373.0,886.0,1.0,1211.0,1
1033,1033,-0.3271611640106866,-0.3,False,474.0,534.0,0.0,1802.0,1
1034,1034,0.9548418700688142,1.0,True,440.0,675.0,1.0,275.0,1
1035,1035,-0.17438085421954108,-0.2,False,286.0,870.0,0.0,2294.0,1
1036,1036,0.5782326708920733,0.6,True,254.0,732.0,1.0,1004.0,1
1037,1037,-0.8375559046559218,-0.8,False,299.0,570.0,0.0,441.0,1
1038,1038,0.03460980154251225,0.0,True,452.0,972.0,1.0,3576.0,1
1039,1039,-0.4079068514660922,-0.4,False,291.0,840.0,0.0,1179.0,1
1040,1040,0.3218927944133474,0.3,True,293.0,696.0,1.0,931.0,1
1041,1041,0.16295013771492095,0.2,True,361.0,859.0,1.0,2040.0,1
1042,1042,0.5757650254781783,0.6,True,257.0,607.0,1.0,326.0,1
1043,1043,0.9425464488477169,0.9,True,282.0,851.0,1.0,487.0,1
1044,1044,-0.48497867956917573,-0.5,False,444.0,562.0,0.0,1294.0,1
1045,1045,-0.9390632353806347,-0.9,False,421.0,516.0,0.0,533.0,1
1046,1046,0.5762905685669619,0.6,True,464.0,904.0,1.0,202.0,1
1047,1047,-0.5792924822570873,-0.6,False,382.0,659.0,0.0,549.0,1
1048,1048,0.12618174727127918,0.1,True,435.0,915.0,1.0,720.0,1
1049,1049,0.12322245283349043,0.1,True,348.0,530.0,1.0,3992.0,1
1050,1050,-0.4747021998385086,-0.5,False,355.0,765.0,0.0,1220.0,1
1051,1051,0.7083750722581867,0.7,True,499.0,868.0,1.0,323.0,1
1052,1052,-0.7922074141370836,-0.8,False,260.0,728.0,0.0,162.0,1
1053,1053,-0.7495601703341517,-0.7,False,384.0,945.0,0.0,541.0,1
1054,1054,-0.4902508863977999,-0.5,False,379.0,958.0,0.0,473.0,1
1055,1055,-0.3905337900413217,-0.4,False,372.0,872.0,0.0,2346.0,1
1056,1056,-0.6285184680804199,-0.6,False,315.0,779.0,0.0,776.0,1
1057,1057,-0.2566028788887127,-0.3,False,408.0,782.0,0.0,2140.0,1
1058,1058,0.4695120415388545,0.5,True,476.0,664.0,1.0,930.0,1
1059,1059,0.6307044264566974,0.6,True,316.0,867.0,1.0,247.0,1
1060,1060,-0.550914624411059,-0.6,False,478.0,890.0,0.0,1382.0,1
1061,1061,-0.01523175476768146,-0.0,False,283.0,575.0,0.0,2792.0,1
1062,1062,0.6826212888533907,0.7,True,378.0,828.0,1.0,1064.0,1
1063,1063,-0.18579700177387615,-0.2,False,263.0,568.0,0.0,1959.0,1
1064,1064,-0.12881216452400124,-0.1,False,382.0,814.0,0.0,764.0,1
1065,1065,0.6369927367525821,0.6,True,399.0,947.0,1.0,194.0,1
1066,1066,0.7058720822009923,0.7,True,447.0,829.0,1.0,494.0,1
1067,1067,-0.9282898688332375,-0.9,False,495.0,625.0,0.0,420.0,1
1068,1068,0.6761361584256875,0.7,True,414.0,656.0,1.0,500.0,1
1069,1069,-0.8749810423335487,-0.9,False,287.0,852.0,0.0,551.0,1
1070,1070,0.5378130310848568,0.5,True,406.0,530.0,1.0,454.0,1
1071,1071,0.15468612824759864,0.2,True,456.0,961.0,0.0,3463.0,0
1072,1072,-0.7455129441615087,-0.7,False,281.0,670.0,0.0,229.0,1
1073,1073,-0.5616438437957021,-0.6,False,455.0,537.0,0.0,1868.0,1
1074,1074,-0.8106740729635191,-0.8,False,297.0,794.0,0.0,319.0,1
1075,1075,0.4166155947270751,0.4,True,475.0,678.0,1.0,1757.0,1
1076,1076,0.16831999362302508,0.2,True,292.0,915.0,1.0,1153.0,1
1077,1077,0.5838223304299255,0.6,True,496.0,824.0,1.0,90.0,1
1078,1078,0.1266361563046663,0.1,True,290.0,523.0,1.0,4187.0,1
1079,1079,-0.2729774096672437,-0.3,False,388.0,671.0,0.0,391.0,1
1080,1080,0.4394847111771929,0.4,True,404.0,651.0,1.0,245.0,1
1081,1081,-0.6457862079121597,-0.6,False,435.0,718.0,0.0,187.0,1
1082,1082,-0.2819446045917835,-0.3,False,434.0,601.0,0.0,225.0,1
1083,1083,0.4602738064864149,0.5,True,455.0,936.0,1.0,509.0,1
1084,1084,-0.01609709490732336,-0.0,False,398.0,952.0,0.0,3650.0,1
1085,1085,0.5197326797241457,0.5,True,475.0,923.0,1.0,1192.0,1
1086,1086,0.19844331745845278,0.2,True,450.0,655.0,1.0,715.0,1
1087,1087,0.4747518538358304,0.5,True,409.0,558.0,1.0,563.0,1
1088,1088,0.7359928076736948,0.7,True,353.0,751.0,1.0,176.0,1
1089,1089,0.11157408497528509,0.1,True,396.0,773.0,0.0,3831.0,0
1090,1090,-0.5604562369424215,-0.6,False,469.0,958.0,0.0,833.0,1
1091,1091,0.7575149326968622,0.8,True,253.0,590.0,1.0,947.0,1
1092,1092,0.2588974204721537,0.3,True,260.0,548.0,1.0,562.0,1
1093,1093,0.680688852989227,0.7,True,259.0,716.0,1.0,385.0,1
1094,1094,0.7546239519867715,0.8,True,252.0,756.0,1.0,152.0,1
1095,1095,-0.5571414752557677,-0.6,False,326.0,713.0,0.0,941.0,1
1096,1096,0.3882511886991127,0.4,True,279.0,961.0,1.0,840.0,1
1097,1097,-0.33763063438831353,-0.3,False,438.0,795.0,0.0,397.0,1
1098,1098,-0.5373772335770828,-0.5,False,292.0,521.0,0.0,977.0,1
1099,1099,-0.6572086105158803,-0.7,False,464.0,873.0,0.0,203.0,1
1100,1100,-0.9095751533465051,-0.9,False,338.0,820.0,0.0,242.0,1
1101,1101,0.2015974652834538,0.2,True,304.0,647.0,1.0,1099.0,1
1102,1102,0.711248191886358,0.7,True,325.0,526.0,1.0,289.0,1
1103,1103,-0.3828058555777636,-0.4,False,353.0,733.0,0.0,224.0,1
1104,1104,-0.5054444411367345,-0.5,False,441.0,502.0,0.0,257.0,1
1105,1105,0.35893335651906355,0.4,True,321.0,653.0,1.0,996.0,1
1106,1106,0.8892740427930752,0.9,True,264.0,781.0,1.0,75.0,1
1107,1107,0.8283247228719268,0.8,True,309.0,677.0,1.0,394.0,1
1108,1108,-0.11410874023325768,-0.1,False,420.0,654.0,1.0,3086.0,0
1109,1109,-0.6312206997992755,-0.6,False,483.0,908.0,0.0,509.0,1
1110,1110,0.5670257476808074,0.6,True,296.0,529.0,1.0,935.0,1
1111,1111,0.6684192605884518,0.7,True,484.0,686.0,1.0,1160.0,1
1112,1112,-0.8424038612773384,-0.8,False,352.0,707.0,0.0,221.0,1
1113,1113,0.2968653896932645,0.3,True,274.0,720.0,1.0,1146.0,1
1114,1114,-0.8168699092590661,-0.8,False,312.0,599.0,0.0,269.0,1
1115,1115,-0.7505550703979293,-0.8,False,491.0,612.0,0.0,177.0,1
1116,1116,-0.8350432266615466,-0.8,False,297.0,634.0,0.0,359.0,1
1117,1117,-0.8073245078897562,-0.8,False,391.0,592.0,0.0,237.0,1
1118,1118,0.47684754163544185,0.5,True,382.0,552.0,1.0,486.0,1
1119,1119,0.4268040455975435,0.4,True,261.0,691.0,1.0,298.0,1
1120,1120,-0.4444195654584686,-0.4,False,466.0,939.0,0.0,95.0,1
1121,1121,0.6849915212896225,0.7,True,312.0,799.0,1.0,249.0,1
1122,1122,0.01615664868708855,0.0,True,352.0,871.0,1.0,3777.0,1
1123,1123,0.0837291941607825,0.1,True,291.0,526.0,1.0,4183.0,1
1124,1124,0.9629240655444957,1.0,True,458.0,845.0,1.0,157.0,1
1125,1125,-0.9016177701188923,-0.9,False,315.0,805.0,0.0,270.0,1
1126,1126,0.43531567937480586,0.4,True,445.0,983.0,1.0,392.0,1
1127,1127,-0.8975734964468882,-0.9,False,262.0,773.0,0.0,215.0,1
1128,1128,-0.48020625831531416,-0.5,False,475.0,931.0,0.0,1064.0,1
1129,1129,-0.9988696971485003,-1.0,False,252.0,574.0,0.0,124.0,1
1130,1130,-0.9646606928357033,-1.0,False,478.0,838.0,0.0,454.0,1
1131,1131,-0.5705817235077486,-0.6,False,294.0,595.0,0.0,871.0,1
1132,1132,0.14740963484958414,0.1,True,450.0,997.0,1.0,603.0,1
1133,1133,-0.6993363621396442,-0.7,False,428.0,618.0,0.0,294.0,1
1134,1134,0.311225641881812,0.3,True,324.0,538.0,1.0,128.0,1
1135,1135,0.4465799746278811,0.4,True,297.0,736.0,1.0,1057.0,1
1136,1136,0.038945705627045024,0.0,True,481.0,538.0,1.0,3941.0,1
1137,1137,0.429055763831101,0.4,True,441.0,530.0,1.0,809.0,1
1138,1138,-0.4511385634803091,-0.5,False,421.0,958.0,0.0,1161.0,1
1139,1139,-0.733739821210603,-0.7,False,376.0,875.0,0.0,269.0,1
1140,1140,-0.43329899296021757,-0.4,False,269.0,687.0,0.0,214.0,1
1141,1141,-0.7830631370911321,-0.8,False,358.0,733.0,0.0,199.0,1
1142,1142,0.4216349480947421,0.4,True,398.0,516.0,1.0,196.0,1
1143,1143,-0.6958319847173995,-0.7,False,441.0,749.0,0.0,190.0,1
1144,1144,0.011445982353649686,0.0,True,473.0,526.0,0.0,4001.0,0
1145,1145,0.8200957752672411,0.8,True,255.0,681.0,1.0,594.0,1
1146,1146,-0.6453865230874396,-0.6,False,422.0,883.0,0.0,595.0,1
1147,1147,0.8616115183839148,0.9,True,459.0,567.0,1.0,524.0,1
1148,1148,0.45796599762503964,0.5,True,331.0,942.0,1.0,597.0,1
1149,1149,-0.4602772991585333,-0.5,False,374.0,849.0,0.0,677.0,1
1150,1150,-0.9288727989299901,-0.9,False,402.0,898.0,0.0,260.0,1
1151,1151,-0.6943629219424661,-0.7,False,286.0,676.0,0.0,368.0,1
1152,1152,0.6943589404301684,0.7,True,364.0,988.0,1.0,798.0,1
1153,1153,0.1464383634017341,0.1,True,254.0,623.0,1.0,4123.0,1
1154,1154,-0.2945022177816905,-0.3,False,280.0,967.0,0.0,943.0,1
1155,1155,0.2633314186317781,0.3,True,457.0,949.0,1.0,2184.0,1
1156,1156,-0.2365393592269034,-0.2,False,469.0,539.0,0.0,212.0,1
1157,1157,0.9596274621453775,1.0,True,250.0,997.0,1.0,233.0,1
1158,1158,0.10247775257996805,0.1,True,410.0,922.0,1.0,558.0,1
1159,1159,-0.029382747021607702,-0.0,False,281.0,806.0,0.0,2563.0,1
1160,1160,-0.8012014895216779,-0.8,False,306.0,715.0,0.0,509.0,1
1161,1161,0.9240563104173598,0.9,True,363.0,846.0,1.0,231.0,1
1162,1162,-0.9840800344052654,-1.0,False,397.0,883.0,0.0,260.0,1
1163,1163,-0.9598511810495156,-1.0,False,397.0,520.0,0.0,133.0,1
1164,1164,-0.37611718541826167,-0.4,False,375.0,660.0,0.0,975.0,1
1165,1165,0.7568445013555913,0.8,True,499.0,582.0,1.0,239.0,1
1166,1166,0.3936479538674489,0.4,True,310.0,507.0,1.0,263.0,1
1167,1167,0.591518827940881,0.6,True,268.0,634.0,1.0,648.0,1
1168,1168,-0.5010279319391855,-0.5,False,331.0,758.0,0.0,781.0,1
1169,1169,0.5818384052821985,0.6,True,476.0,901.0,1.0,673.0,1
1170,1170,0.20818835437149086,0.2,True,284.0,957.0,1.0,3369.0,1
1171,1171,-0.1297945631148596,-0.1,False,390.0,665.0,0.0,3195.0,1
1172,1172,-0.48527253217793787,-0.5,False,367.0,855.0,0.0,178.0,1
1173,1173,0.16261253864017222,0.2,True,486.0,754.0,0.0,530.0,0
1174,1174,-0.2811616930591181,-0.3,False,381.0,667.0,1.0,3952.0,0
1175,1175,-0.9885447721224294,-1.0,False,289.0,969.0,0.0,212.0,1
1176,1176,-0.5506205502322274,-0.6,False,495.0,665.0,0.0,280.0,1
1177,1177,-0.5890381273958765,-0.6,False,368.0,965.0,0.0,107.0,1
1178,1178,0.22681745200669212,0.2,True,440.0,690.0,1.0,2940.0,1
1179,1179,0.892429918498713,0.9,True,414.0,662.0,1.0,394.0,1
1180,1180,-0.474670936419503,-0.5,False,347.0,694.0,0.0,219.0,1
1181,1181,0.10723504445758847,0.1,True,311.0,563.0,1.0,1486.0,1
1182,1182,-0.47912277292218786,-0.5,False,286.0,796.0,0.0,638.0,1
1183,1183,-0.5588941951898463,-0.6,False,346.0,794.0,0.0,570.0,1
1184,1184,0.11459124560489742,0.1,True,257.0,532.0,1.0,651.0,1
1185,1185,0.9665257683198727,1.0,True,335.0,516.0,1.0,329.0,1
1186,1186,0.38551410114571705,0.4,True,402.0,617.0,1.0,891.0,1
1187,1187,0.9080770003485774,0.9,True,252.0,983.0,1.0,305.0,1
1188,1188,0.5419750805813017,0.5,True,349.0,986.0,1.0,295.0,1
1189,1189,-0.14114413294927108,-0.1,False,335.0,773.0,0.0,1522.0,1
1190,1190,0.6666701935812045,0.7,True,446.0,555.0,1.0,259.0,1
1191,1191,0.47356101509729287,0.5,True,318.0,798.0,1.0,394.0,1
1192,1192,0.17738517312572877,0.2,True,330.0,822.0,1.0,898.0,1
1193,1193,0.5371778417426651,0.5,True,325.0,564.0,1.0,251.0,1
1194,1194,0.6453221640508422,0.6,True,427.0,649.0,1.0,904.0,1
1195,1195,0.7037288364596352,0.7,True,305.0,535.0,1.0,400.0,1
1196,1196,-0.6116920737641536,-0.6,False,473.0,500.0,0.0,797.0,1
1197,1197,0.5789907002334018,0.6,True,465.0,660.0,1.0,155.0,1
1198,1198,-0.43372821117719407,-0.4,False,397.0,528.0,0.0,905.0,1
1199,1199,0.9862606192029664,1.0,True,414.0,969.0,1.0,207.0,1
1200,1200,0.4088105344711057,0.4,True,398.0,541.0,1.0,581.0,1
1201,1201,-0.3462799630097624,-0.3,False,348.0,724.0,0.0,778.0,1
1202,1202,-0.5481485423383703,-0.5,False,343.0,870.0,0.0,947.0,1
1203,1203,0.24025540626775932,0.2,True,286.0,729.0,1.0,795.0,1
1204,1204,-0.36400852887829527,-0.4,False,430.0,710.0,0.0,930.0,1
1205,1205,-0.8179342432949306,-0.8,False,282.0,520.0,0.0,578.0,1
1206,1206,-0.19673389408193453,-0.2,False,305.0,938.0,0.0,3757.0,1
1207,1207,0.36357320253370173,0.4,True,269.0,588.0,1.0,1613.0,1
1208,1208,-0.7875334249429209,-0.8,False,444.0,808.0,0.0,168.0,1
1209,1209,0.4616764827418822,0.5,True,293.0,802.0,1.0,485.0,1
1210,1210,0.6278638576469326,0.6,True,479.0,844.0,1.0,367.0,1
1211,1211,-0.3525115214319696,-0.4,False,413.0,572.0,0.0,1605.0,1
1212,1212,-0.8490145312599413,-0.8,False,292.0,922.0,0.0,246.0,1
1213,1213,0.7298245966878918,0.7,True,320.0,776.0,1.0,264.0,1
1214,1214,-0.5380707876629607,-0.5,False,383.0,926.0,0.0,701.0,1
1215,1215,-0.4183427464359064,-0.4,False,480.0,524.0,0.0,486.0,1
1216,1216,-0.6433628114141972,-0.6,False,275.0,730.0,0.0,65.0,1
1217,1217,0.9968392789632294,1.0,True,367.0,505.0,1.0,248.0,1
1218,1218,-0.8214401705457086,-0.8,False,260.0,978.0,0.0,882.0,1
1219,1219,-0.4557062884082077,-0.5,False,294.0,861.0,0.0,545.0,1
1220,1220,-0.8784241010466811,-0.9,False,488.0,510.0,0.0,112.0,1
1221,1221,0.7402003692486585,0.7,True,356.0,574.0,1.0,270.0,1
1222,1222,0.29964332713010955,0.3,True,496.0,778.0,1.0,626.0,1
1223,1223,-0.15116876965764892,-0.2,False,283.0,935.0,0.0,2162.0,1
1224,1224,0.9053179601278345,0.9,True,457.0,674.0,1.0,649.0,1
1225,1225,-0.6427859593513767,-0.6,False,460.0,609.0,0.0,751.0,1
1226,1226,-0.5160065399727758,-0.5,False,345.0,741.0,0.0,604.0,1
1227,1227,0.06553748463088716,0.1,True,270.0,690.0,1.0,1410.0,1
1228,1228,-0.47685118412813443,-0.5,False,396.0,789.0,0.0,1025.0,1
1229,1229,0.10670374372977998,0.1,True,466.0,626.0,1.0,3908.0,1
1230,1230,0.3372805046517475,0.3,True,377.0,509.0,1.0,724.0,1
1231,1231,-0.7154095723958545,-0.7,False,315.0,902.0,0.0,433.0,1
1232,1232,-0.38053610575684105,-0.4,False,441.0,691.0,0.0,188.0,1
1233,1233,0.7896948126916448,0.8,True,412.0,746.0,1.0,152.0,1
1234,1234,0.5279523483994795,0.5,True,311.0,720.0,1.0,1379.0,1
1235,1235,0.6532545767556479,0.7,True,294.0,875.0,1.0,1551.0,1
1236,1236,0.24497756783684355,0.2,True,262.0,688.0,1.0,1090.0,1
1237,1237,0.8898938605891946,0.9,True,328.0,925.0,1.0,317.0,1
1238,1238,0.8894368205486329,0.9,True,463.0,893.0,1.0,284.0,1
1239,1239,-0.5127586903750907,-0.5,False,276.0,519.0,0.0,765.0,1
1240,1240,-0.7752493203877997,-0.8,False,344.0,528.0,0.0,358.0,1
1241,1241,0.17412807397283525,0.2,True,275.0,676.0,1.0,409.0,1
1242,1242,-0.6303870333971517,-0.6,False,400.0,743.0,0.0,217.0,1
1243,1243,0.7292869764741854,0.7,True,287.0,581.0,1.0,462.0,1
1244,1244,0.6236620058031488,0.6,True,478.0,862.0,1.0,480.0,1
1245,1245,0.7228103318399766,0.7,True,256.0,696.0,1.0,238.0,1
1246,1246,0.2911122453656405,0.3,True,258.0,793.0,1.0,3949.0,1
1247,1247,-0.4504689046885717,-0.5,False,435.0,602.0,0.0,1273.0,1
1248,1248,0.2183857733597243,0.2,True,445.0,628.0,1.0,677.0,1
1249,1249,0.23210763942484225,0.2,True,480.0,959.0,1.0,3561.0,1
1250,1250,-0.25143582232925343,-0.3,False,277.0,578.0,0.0,4145.0,1
1251,1251,0.6285469077444366,0.6,True,257.0,982.0,1.0,351.0,1
1252,1252,0.09554655473683038,0.1,True,404.0,588.0,1.0,1458.0,1
1253,1253,0.762610925811531,0.8,True,428.0,797.0,1.0,125.0,1
1254,1254,-0.4156327652423699,-0.4,False,326.0,520.0,0.0,1094.0,1
1255,1255,-0.38842868001833364,-0.4,False,399.0,719.0,0.0,472.0,1
1256,1256,-0.9755985832139571,-1.0,False,431.0,801.0,0.0,538.0,1
1257,1257,0.3090341305663944,0.3,True,368.0,736.0,1.0,2306.0,1
1258,1258,-0.6286401464754128,-0.6,False,298.0,780.0,0.0,682.0,1
1259,1259,-0.5623149103993637,-0.6,False,363.0,705.0,0.0,392.0,1
1260,1260,-0.6757696895391923,-0.7,False,274.0,972.0,0.0,824.0,1
1261,1261,-0.9278240813005825,-0.9,False,398.0,898.0,0.0,84.0,1
1262,1262,0.4989064254719495,0.5,True,394.0,648.0,1.0,2208.0,1
1263,1263,0.9115802102410602,0.9,True,441.0,608.0,1.0,201.0,1
1264,1264,0.11209957305187346,0.1,True,345.0,555.0,1.0,4100.0,1
1265,1265,-0.6718181481655288,-0.7,False,460.0,977.0,0.0,413.0,1
1266,1266,0.8701670384882176,0.9,True,480.0,913.0,1.0,277.0,1
1267,1267,0.6206405230516021,0.6,True,295.0,793.0,1.0,982.0,1
1268,1268,0.5291428842379204,0.5,True,373.0,935.0,1.0,292.0,1
1269,1269,-0.08409801868147437,-0.1,False,478.0,809.0,0.0,223.0,1
1270,1270,-0.8099429822302351,-0.8,False,388.0,609.0,0.0,143.0,1
1271,1271,0.36309633791469453,0.4,True,351.0,680.0,1.0,1489.0,1
1272,1272,0.4615095294683209,0.5,True,257.0,533.0,1.0,470.0,1
1273,1273,-0.6244299854143698,-0.6,False,407.0,509.0,0.0,284.0,1
1274,1274,-0.17505271398123923,-0.2,False,427.0,676.0,0.0,3897.0,1
1275,1275,0.39095384402670597,0.4,True,391.0,703.0,1.0,896.0,1
1276,1276,0.7556712158436751,0.8,True,382.0,575.0,1.0,563.0,1
1277,1277,0.2525604551156275,0.3,True,474.0,635.0,1.0,231.0,1
1278,1278,-0.33347269369033405,-0.3,False,278.0,934.0,0.0,1018.0,1
1279,1279,-0.044349074880489336,-0.0,False,262.0,984.0,1.0,424.0,0
1280,1280,-0.2750363164097749,-0.3,False,393.0,823.0,0.0,3784.0,1
1281,1281,-0.6231461429676641,-0.6,False,334.0,795.0,0.0,531.0,1
1282,1282,0.39790578556228984,0.4,True,475.0,902.0,1.0,653.0,1
1283,1283,-0.7547893495497964,-0.8,False,470.0,806.0,0.0,274.0,1
1284,1284,-0.4172000188753622,-0.4,False,338.0,856.0,0.0,756.0,1
1285,1285,-0.3984545458025357,-0.4,False,406.0,931.0,0.0,653.0,1
1286,1286,0.05854954979780347,0.1,True,327.0,936.0,1.0,797.0,1
1287,1287,0.8425146959629575,0.8,True,269.0,500.0,1.0,841.0,1
1288,1288,-0.02136243810848648,-0.0,False,484.0,901.0,0.0,3615.0,1
1289,1289,-0.6665786749169118,-0.7,False,307.0,515.0,0.0,428.0,1
1290,1290,-0.7264187844433541,-0.7,False,383.0,913.0,0.0,294.0,1
1291,1291,0.08909012611484357,0.1,True,331.0,940.0,0.0,3569.0,0
1292,1292,0.6181782724587699,0.6,True,381.0,844.0,1.0,375.0,1
1293,1293,0.37003180480367215,0.4,True,387.0,978.0,1.0,1025.0,1
1294,1294,0.3646650884195042,0.4,True,494.0,900.0,1.0,1456.0,1
1295,1295,-0.3106848843502381,-0.3,False,441.0,642.0,0.0,777.0,1
1296,1296,0.9387671630428007,0.9,True,359.0,902.0,1.0,399.0,1
1297,1297,0.2060166837827333,0.2,True,334.0,724.0,1.0,2572.0,1
1298,1298,0.5778418790104196,0.6,True,253.0,844.0,1.0,573.0,1
1299,1299,-0.62619362406569,-0.6,False,451.0,511.0,0.0,678.0,1
1300,1300,0.013147993476814612,0.0,True,465.0,792.0,0.0,813.0,0
1301,1301,-0.444028315679716,-0.4,False,453.0,658.0,0.0,219.0,1
1302,1302,-0.9477682006878863,-0.9,False,496.0,719.0,0.0,1065.0,1
1303,1303,-0.3055503623549196,-0.3,False,304.0,943.0,0.0,1623.0,1
1304,1304,0.7464758235577578,0.7,True,269.0,820.0,1.0,531.0,1
1305,1305,-0.014185683335660837,-0.0,False,407.0,703.0,1.0,3890.0,0
1306,1306,-0.4050631914174041,-0.4,False,418.0,600.0,0.0,352.0,1
1307,1307,-0.5704682066091482,-0.6,False,367.0,524.0,0.0,909.0,1
1308,1308,0.8049652732781267,0.8,True,388.0,746.0,1.0,226.0,1
1309,1309,0.5374135266208,0.5,True,484.0,724.0,1.0,372.0,1
1310,1310,0.33794566314823604,0.3,True,414.0,847.0,1.0,279.0,1
1311,1311,0.35115574945295913,0.4,True,269.0,657.0,0.0,364.0,0
1312,1312,0.04928359133737792,0.0,True,470.0,521.0,1.0,4009.0,1
1313,1313,0.505392322437799,0.5,True,445.0,536.0,1.0,349.0,1
1314,1314,0.7958986662884151,0.8,True,282.0,990.0,1.0,308.0,1
1315,1315,-0.36293486827009946,-0.4,False,374.0,645.0,0.0,491.0,1
1316,1316,-0.5880220339307554,-0.6,False,269.0,949.0,0.0,512.0,1
1317,1317,0.2787220860675763,0.3,True,395.0,783.0,1.0,2132.0,1
1318,1318,0.8853277349309179,0.9,True,457.0,578.0,1.0,475.0,1
1319,1319,-0.34088701857159354,-0.3,False,358.0,849.0,0.0,473.0,1
1320,1320,0.18731969921832414,0.2,True,481.0,562.0,1.0,687.0,1
1321,1321,-0.39199171716651815,-0.4,False,302.0,868.0,0.0,270.0,1
1322,1322,0.5368680689086363,0.5,True,291.0,949.0,1.0,350.0,1
1323,1323,-0.821257584623527,-0.8,False,298.0,983.0,0.0,529.0,1
1324,1324,0.6414098601669589,0.6,True,354.0,657.0,1.0,439.0,1
1325,1325,-0.6821811702375558,-0.7,False,350.0,916.0,0.0,534.0,1
1326,1326,0.8539022505418996,0.9,True,382.0,869.0,1.0,279.0,1
1327,1327,-0.6926546610174089,-0.7,False,338.0,671.0,0.0,2101.0,1
1328,1328,-0.8950045591877704,-0.9,False,401.0,902.0,0.0,247.0,1
1329,1329,0.7950150226916495,0.8,True,307.0,897.0,1.0,486.0,1
1330,1330,0.6759579025808462,0.7,True,314.0,536.0,1.0,220.0,1
1331,1331,0.11768845779934445,0.1,True,416.0,540.0,1.0,3974.0,1
1332,1332,0.12152792433104742,0.1,True,257.0,863.0,1.0,1000.0,1
1333,1333,-0.4432389230419156,-0.4,False,380.0,587.0,0.0,263.0,1
1334,1334,0.28043695874848873,0.3,True,449.0,664.0,1.0,557.0,1
1335,1335,-0.28919190200684786,-0.3,False,275.0,502.0,0.0,3023.0,1
1336,1336,-0.7216681597964358,-0.7,False,285.0,673.0,0.0,782.0,1
1337,1337,-0.6198679991803051,-0.6,False,412.0,933.0,0.0,205.0,1
1338,1338,-0.26898952338436977,-0.3,False,270.0,501.0,0.0,619.0,1
1339,1339,-0.6166956429557682,-0.6,False,382.0,713.0,0.0,295.0,1
1340,1340,-0.18321677390477475,-0.2,False,467.0,959.0,0.0,3574.0,1
1341,1341,-0.10042960015609892,-0.1,False,418.0,945.0,0.0,907.0,1
1342,1342,-0.9246484933240249,-0.9,False,272.0,802.0,0.0,166.0,1
1343,1343,-0.42108471100464917,-0.4,False,455.0,651.0,0.0,2154.0,1
1344,1344,-0.7288333058273289,-0.7,False,282.0,961.0,0.0,1657.0,1
1345,1345,-0.9529700245142474,-1.0,False,260.0,989.0,0.0,231.0,1
1346,1346,0.12079025461300019,0.1,True,387.0,652.0,1.0,3961.0,1
1347,1347,-0.5844757008551562,-0.6,False,477.0,727.0,0.0,1206.0,1
1348,1348,-0.17712732763835692,-0.2,False,294.0,995.0,0.0,1581.0,1
1349,1349,-0.38969280877091816,-0.4,False,460.0,971.0,0.0,499.0,1
1350,1350,-0.45532916745664864,-0.5,False,387.0,578.0,0.0,1055.0,1
1351,1351,0.5700567615073664,0.6,True,409.0,605.0,1.0,996.0,1
1352,1352,0.26572854133535095,0.3,True,400.0,572.0,1.0,2928.0,1
1353,1353,-0.21029487836957772,-0.2,False,302.0,719.0,0.0,589.0,1
1354,1354,-0.684126623576705,-0.7,False,344.0,853.0,0.0,1423.0,1
1355,1355,-0.7628751870116752,-0.8,False,344.0,585.0,0.0,201.0,1
1356,1356,-0.0651496402652052,-0.1,False,481.0,701.0,0.0,378.0,1
1357,1357,0.7708314696576852,0.8,True,401.0,769.0,1.0,330.0,1
1358,1358,-0.6044576702233577,-0.6,False,341.0,803.0,0.0,346.0,1
1359,1359,-0.974070300269879,-1.0,False,453.0,657.0,0.0,680.0,1
1360,1360,-0.17723004276245957,-0.2,False,408.0,501.0,0.0,201.0,1
1361,1361,-0.20486104446627174,-0.2,False,387.0,827.0,0.0,3786.0,1
1362,1362,0.9121179277687634,0.9,True,425.0,994.0,1.0,381.0,1
1363,1363,0.5862837404850294,0.6,True,270.0,863.0,1.0,1367.0,1
1364,1364,0.6245831967296456,0.6,True,347.0,649.0,1.0,194.0,1
1365,1365,-0.7643215741471454,-0.8,False,461.0,830.0,0.0,449.0,1
1366,1366,-0.5137105459893416,-0.5,False,339.0,544.0,0.0,497.0,1
1367,1367,0.16998793475905427,0.2,True,440.0,982.0,0.0,3578.0,0
1368,1368,-0.40132812997056133,-0.4,False,346.0,727.0,0.0,377.0,1
1369,1369,0.7916355359968681,0.8,True,287.0,843.0,1.0,310.0,1
1370,1370,-0.29954329758318554,-0.3,False,286.0,870.0,0.0,2124.0,1
1371,1371,0.32042556239981734,0.3,True,427.0,877.0,0.0,3696.0,0
1372,1372,0.868033769277238,0.9,True,373.0,516.0,1.0,421.0,1
1373,1373,0.02189983624972136,0.0,True,480.0,556.0,0.0,3964.0,0
1374,1374,0.3798627502488652,0.4,True,435.0,923.0,1.0,322.0,1
1375,1375,0.7553506553487881,0.8,True,433.0,915.0,1.0,342.0,1
1376,1376,0.651376823786012,0.7,True,364.0,907.0,1.0,369.0,1
1377,1377,-0.5884457789770257,-0.6,False,410.0,859.0,0.0,611.0,1
1378,1378,0.25256790587219746,0.3,True,431.0,732.0,1.0,1557.0,1
1379,1379,-0.7492396943498671,-0.7,False,303.0,761.0,0.0,566.0,1
1380,1380,0.17172486157100475,0.2,True,360.0,544.0,1.0,2036.0,1
1381,1381,-0.2766426499463879,-0.3,False,462.0,509.0,0.0,2299.0,1
1382,1382,-0.32649802653696924,-0.3,False,449.0,803.0,0.0,2668.0,1
1383,1383,-0.8863361291519216,-0.9,False,397.0,550.0,0.0,253.0,1
1384,1384,0.21231841579677568,0.2,True,468.0,614.0,1.0,708.0,1
1385,1385,-0.19117879561022288,-0.2,False,377.0,962.0,0.0,131.0,1
1386,1386,0.5913159200091838,0.6,True,254.0,673.0,1.0,763.0,1
1387,1387,0.038956821334968916,0.0,True,306.0,888.0,1.0,2656.0,1
1388,1388,-0.5229960324280234,-0.5,False,305.0,647.0,0.0,388.0,1
1389,1389,-0.6634314966278982,-0.7,False,276.0,869.0,0.0,585.0,1
1390,1390,-0.7218150524867641,-0.7,False,258.0,736.0,0.0,256.0,1
1391,1391,-0.14862380076261794,-0.1,False,365.0,921.0,0.0,934.0,1
1392,1392,-0.70347552887511,-0.7,False,477.0,631.0,0.0,172.0,1
1393,1393,0.49570559454624763,0.5,True,435.0,828.0,1.0,797.0,1
1394,1394,-0.8715323928147525,-0.9,False,395.0,695.0,0.0,430.0,1
1395,1395,-0.42451739468539884,-0.4,False,262.0,987.0,0.0,531.0,1
1396,1396,-0.1644428224984531,-0.2,False,426.0,551.0,0.0,3203.0,1
1397,1397,-0.7766835650690593,-0.8,False,458.0,820.0,0.0,292.0,1
1398,1398,-0.938531874463892,-0.9,False,252.0,683.0,0.0,105.0,1
1399,1399,-0.08301727732263653,-0.1,False,384.0,839.0,1.0,897.0,0
1400,1400,-0.4743067708533726,-0.5,False,319.0,730.0,0.0,791.0,1
1401,1401,0.7137033547076013,0.7,True,344.0,694.0,1.0,392.0,1
1402,1402,-0.6893565578251539,-0.7,False,467.0,846.0,0.0,677.0,1
1403,1403,0.37936515486134037,0.4,True,268.0,516.0,1.0,626.0,1
1404,1404,0.4553727205136717,0.5,True,495.0,944.0,1.0,351.0,1
1405,1405,-0.7967747036030335,-0.8,False,463.0,699.0,0.0,168.0,1
1406,1406,-0.5398417488627856,-0.5,False,293.0,515.0,0.0,422.0,1
1407,1407,-0.8384874051942948,-0.8,False,483.0,683.0,0.0,404.0,1
1408,1408,-0.6762525101045744,-0.7,False,448.0,788.0,0.0,204.0,1
1409,1409,0.6971789796511021,0.7,True,358.0,860.0,1.0,402.0,1
1410,1410,0.8137929508679187,0.8,True,403.0,533.0,1.0,184.0,1
1411,1411,0.16531780824041253,0.2,True,472.0,568.0,1.0,380.0,1
1412,1412,-0.5120315317975257,-0.5,False,287.0,733.0,0.0,320.0,1
1413,1413,-0.4293524304483065,-0.4,False,474.0,949.0,0.0,217.0,1
1414,1414,0.6633924145638939,0.7,True,414.0,713.0,1.0,323.0,1
1415,1415,-0.4554847210327726,-0.5,False,327.0,713.0,0.0,290.0,1
1416,1416,-0.3930930866824638,-0.4,False,390.0,709.0,0.0,441.0,1
1417,1417,0.2855865747371309,0.3,True,443.0,537.0,1.0,240.0,1
1418,1418,-0.624275495391007,-0.6,False,439.0,825.0,0.0,956.0,1
1419,1419,-0.28246372724208557,-0.3,False,413.0,529.0,0.0,1388.0,1
1420,1420,-0.47505169014076776,-0.5,False,303.0,799.0,0.0,1328.0,1
1421,1421,0.6224266914376886,0.6,True,428.0,858.0,1.0,224.0,1
1422,1422,0.3042663782643309,0.3,True,267.0,969.0,1.0,2424.0,1
1423,1423,0.9125324491865641,0.9,True,269.0,537.0,1.0,154.0,1
1424,1424,-0.6530624809222272,-0.7,False,387.0,716.0,0.0,327.0,1
1425,1425,0.6165556849905254,0.6,True,346.0,983.0,1.0,521.0,1
1426,1426,0.028191625913948526,0.0,True,391.0,994.0,0.0,3615.0,0
1427,1427,0.1416420869945445,0.1,True,465.0,851.0,1.0,1304.0,1
1428,1428,-0.11482207103789155,-0.1,False,476.0,774.0,0.0,3750.0,1
1429,1429,-0.5710511945660635,-0.6,False,460.0,959.0,0.0,61.0,1
1430,1430,-0.16892011053705103,-0.2,False,405.0,996.0,0.0,1299.0,1
1431,1431,-0.19026461773869086,-0.2,False,323.0,641.0,0.0,1746.0,1
1432,1432,0.33879913503310366,0.3,True,260.0,776.0,1.0,2654.0,1
1433,1433,0.8325199036698148,0.8,True,461.0,559.0,1.0,170.0,1
1434,1434,0.4067850819659222,0.4,True,382.0,538.0,1.0,1180.0,1
1435,1435,-0.966659516352397,-1.0,False,329.0,616.0,0.0,85.0,1
1436,1436,-0.5677014136526808,-0.6,False,309.0,641.0,0.0,650.0,1
1437,1437,-0.36258248294118345,-0.4,False,268.0,788.0,0.0,1024.0,1
1438,1438,-0.8123167398929798,-0.8,False,351.0,905.0,0.0,404.0,1
1439,1439,0.05037747370078827,0.1,True,449.0,916.0,1.0,715.0,1
1440,1440,-0.9043399268475467,-0.9,False,294.0,857.0,0.0,229.0,1
1441,1441,-0.047029465607844045,-0.0,False,474.0,710.0,0.0,3816.0,1
1442,1442,-0.8086089456744023,-0.8,False,441.0,640.0,0.0,309.0,1
1443,1443,-0.4969352663766733,-0.5,False,454.0,910.0,0.0,226.0,1
1444,1444,-0.16490404009231896,-0.2,False,259.0,697.0,0.0,354.0,1
1445,1445,0.18315806103441834,0.2,True,296.0,811.0,1.0,643.0,1
1446,1446,-0.1857843822956733,-0.2,False,403.0,510.0,0.0,1497.0,1
1447,1447,0.534725824250694,0.5,True,319.0,699.0,1.0,602.0,1
1448,1448,0.15894956541911087,0.2,True,267.0,679.0,1.0,1584.0,1
1449,1449,-0.3447179058159717,-0.3,False,391.0,511.0,0.0,538.0,1
1450,1450,0.8354753506482155,0.8,True,302.0,997.0,1.0,361.0,1
1451,1451,0.5360171405402301,0.5,True,426.0,504.0,1.0,460.0,1
1452,1452,0.7700425403223132,0.8,True,363.0,831.0,1.0,116.0,1
1453,1453,-0.0708564472101767,-0.1,False,339.0,934.0,0.0,2207.0,1
1454,1454,-0.7202066736358674,-0.7,False,444.0,839.0,0.0,227.0,1
1455,1455,-0.8108955570060634,-0.8,False,376.0,550.0,0.0,694.0,1
1456,1456,0.9969271586800432,1.0,True,337.0,829.0,1.0,144.0,1
1457,1457,0.5063885433963302,0.5,True,480.0,555.0,1.0,1285.0,1
1458,1458,0.13927638351464822,0.1,True,287.0,667.0,1.0,2196.0,1
1459,1459,-0.9344446257915646,-0.9,False,469.0,655.0,0.0,276.0,1
1460,1460,-0.27656241736769016,-0.3,False,312.0,748.0,0.0,330.0,1
1461,1461,0.06744059760824439,0.1,True,356.0,609.0,1.0,4035.0,1
1462,1462,0.16636725880708125,0.2,True,342.0,796.0,1.0,3862.0,1
1463,1463,-0.49549640972408016,-0.5,False,429.0,951.0,0.0,490.0,1
1464,1464,-0.5297364958266555,-0.5,False,370.0,872.0,0.0,178.0,1
1465,1465,0.9656726670544034,1.0,True,331.0,705.0,1.0,184.0,1
1466,1466,0.7738976355596043,0.8,True,331.0,716.0,1.0,243.0,1
1467,1467,-0.46471623230960124,-0.5,False,339.0,693.0,0.0,1138.0,1
1468,1468,-0.24263374493203904,-0.2,False,352.0,608.0,0.0,430.0,1
1469,1469,0.3563035851956182,0.4,True,427.0,924.0,1.0,969.0,1
1470,1470,0.7543117812645266,0.8,True,437.0,709.0,1.0,434.0,1
1471,1471,0.15310374331124144,0.2,True,439.0,534.0,1.0,1817.0,1
1472,1472,-0.04733808331146472,-0.0,False,461.0,549.0,1.0,3990.0,0
1473,1473,0.904852858593608,0.9,True,319.0,793.0,1.0,228.0,1
1474,1474,-0.6662656239359461,-0.7,False,471.0,655.0,0.0,1704.0,1
1475,1475,0.6942651653464029,0.7,True,259.0,606.0,1.0,105.0,1
1476,1476,-0.382328168393276,-0.4,False,467.0,823.0,0.0,1170.0,1
1477,1477,0.30906958279024166,0.3,True,489.0,540.0,1.0,941.0,1
1478,1478,0.23033064325890296,0.2,True,444.0,737.0,1.0,3569.0,1
1479,1479,-0.41402709955746597,-0.4,False,276.0,845.0,0.0,989.0,1
1480,1480,0.4528171128479781,0.5,True,273.0,933.0,1.0,414.0,1
1481,1481,-0.5494629395400763,-0.5,False,338.0,952.0,0.0,390.0,1
1482,1482,0.8031213580111334,0.8,True,368.0,691.0,1.0,201.0,1
1483,1483,0.84227833648212,0.8,True,330.0,768.0,1.0,372.0,1
1484,1484,0.30873531736076454,0.3,True,360.0,551.0,1.0,109.0,1
1485,1485,0.2701146469394986,0.3,True,499.0,652.0,1.0,679.0,1
1486,1486,0.09895796117643285,0.1,True,286.0,548.0,1.0,756.0,1
1487,1487,-0.353567554152016,-0.4,False,279.0,789.0,0.0,1262.0,1
1488,1488,-0.6564475187173764,-0.7,False,358.0,990.0,0.0,152.0,1
1489,1489,-0.7887037768080836,-0.8,False,338.0,988.0,0.0,204.0,1
1490,1490,-0.5428387722114942,-0.5,False,363.0,782.0,0.0,965.0,1
1491,1491,0.8284459886444733,0.8,True,367.0,737.0,1.0,276.0,1
1492,1492,0.8421267072242717,0.8,True,443.0,983.0,1.0,314.0,1
1493,1493,0.3483125491017207,0.3,True,418.0,542.0,1.0,2430.0,1
1494,1494,0.701757376942401,0.7,True,366.0,616.0,1.0,258.0,1
1495,1495,0.5640641615696054,0.6,True,390.0,578.0,1.0,362.0,1
1496,1496,-0.5280745322470253,-0.5,False,396.0,865.0,0.0,739.0,1
1497,1497,-0.3053348874521675,-0.3,False,390.0,503.0,0.0,3727.0,1
1498,1498,0.3254961178643847,0.3,True,474.0,903.0,1.0,1273.0,1
1499,1499,0.3047450305814636,0.3,True,301.0,893.0,1.0,736.0,1
1500,1500,-0.7209079300540586,-0.7,False,260.0,770.0,0.0,530.0,1
1501,1501,0.1693289533649509,0.2,True,431.0,784.0,1.0,3785.0,1
1502,1502,0.38934783972435505,0.4,True,380.0,933.0,1.0,537.0,1
1503,1503,-0.934999066697914,-0.9,False,362.0,823.0,0.0,175.0,1
1504,1504,-0.15021493865358604,-0.2,False,405.0,933.0,0.0,962.0,1
1505,1505,-0.5421071585475536,-0.5,False,309.0,946.0,0.0,1035.0,1
1506,1506,0.44219196718082343,0.4,True,418.0,897.0,1.0,575.0,1
1507,1507,-0.49020156614419896,-0.5,False,478.0,884.0,0.0,328.0,1
1508,1508,-0.3973915482612982,-0.4,False,269.0,609.0,0.0,2062.0,1
1509,1509,0.7470565339002644,0.7,True,284.0,932.0,1.0,1164.0,1
1510,1510,-0.28095595857304945,-0.3,False,445.0,921.0,0.0,714.0,1
1511,1511,0.8832850722620167,0.9,True,338.0,762.0,1.0,170.0,1
1512,1512,0.6012087811743485,0.6,True,423.0,687.0,1.0,810.0,1
1513,1513,0.7604825626275087,0.8,True,458.0,541.0,1.0,231.0,1
1514,1514,0.017786082279471538,0.0,True,493.0,669.0,1.0,1738.0,1
1515,1515,0.22565674058439322,0.2,True,284.0,952.0,1.0,2594.0,1
1516,1516,-0.8890203244155548,-0.9,False,305.0,785.0,0.0,400.0,1
1517,1517,-0.770493952258579,-0.8,False,491.0,898.0,0.0,1721.0,1
1518,1518,0.7496274001074652,0.7,True,423.0,856.0,1.0,491.0,1
1519,1519,0.27928652454433145,0.3,True,369.0,978.0,1.0,1883.0,1
1520,1520,0.2209721434897991,0.2,True,440.0,827.0,1.0,573.0,1
1521,1521,0.11727405132818625,0.1,True,471.0,665.0,1.0,884.0,1
1522,1522,0.47564045224285456,0.5,True,440.0,825.0,1.0,705.0,1
1523,1523,-0.640885891998481,-0.6,False,398.0,969.0,0.0,283.0,1
1524,1524,-0.26142119173391776,-0.3,False,341.0,567.0,0.0,232.0,1
1525,1525,-0.6592967823254099,-0.7,False,257.0,817.0,0.0,606.0,1
1526,1526,-0.22897098436706909,-0.2,False,402.0,920.0,0.0,558.0,1
1527,1527,0.5162121024489061,0.5,True,341.0,964.0,1.0,555.0,1
1528,1528,-0.26311277610483863,-0.3,False,413.0,675.0,1.0,3912.0,0
1529,1529,0.7449475629851716,0.7,True,369.0,855.0,1.0,316.0,1
1530,1530,0.8039335019419349,0.8,True,293.0,709.0,1.0,258.0,1
1531,1531,-0.060501413060601195,-0.1,False,336.0,621.0,0.0,4043.0,1
1532,1532,0.6740584229037117,0.7,True,291.0,979.0,1.0,350.0,1
1533,1533,-0.011554888910930261,-0.0,False,308.0,831.0,0.0,3861.0,1
1534,1534,0.870234284532065,0.9,True,441.0,713.0,1.0,286.0,1
1535,1535,0.842500604747527,0.8,True,478.0,796.0,1.0,946.0,1
1536,1536,0.24491248728449766,0.2,True,377.0,634.0,1.0,2239.0,1
1537,1537,0.30035868691321577,0.3,True,477.0,668.0,1.0,205.0,1
1538,1538,-0.18813670443298003,-0.2,False,334.0,645.0,0.0,2351.0,1
1539,1539,-0.15323061775902325,-0.2,False,386.0,599.0,0.0,895.0,1
1540,1540,0.9619693443072588,1.0,True,453.0,833.0,1.0,304.0,1
1541,1541,-0.7607524924712434,-0.8,False,370.0,690.0,0.0,320.0,1
1542,1542,-0.7026823387044245,-0.7,False,415.0,928.0,0.0,407.0,1
1543,1543,0.5127347640842406,0.5,True,343.0,843.0,1.0,1404.0,1
1544,1544,-0.7000875156671229,-0.7,False,405.0,813.0,0.0,242.0,1
1545,1545,0.22163884323379568,0.2,True,405.0,547.0,1.0,2108.0,1
1546,1546,0.4924383137982453,0.5,True,392.0,632.0,1.0,1136.0,1
1547,1547,-0.6839592412701139,-0.7,False,327.0,585.0,0.0,638.0,1
1548,1548,-0.728072837927906,-0.7,False,491.0,843.0,0.0,306.0,1
1549,1549,0.40363559430355744,0.4,True,316.0,520.0,1.0,1784.0,1
1550,1550,0.2944650652395271,0.3,True,424.0,942.0,1.0,2304.0,1
1551,1551,0.18882253447103503,0.2,True,378.0,724.0,1.0,3578.0,1
1552,1552,-0.8707392234472469,-0.9,False,349.0,750.0,0.0,421.0,1
1553,1553,-0.6560436781975378,-0.7,False,261.0,997.0,0.0,512.0,1
1554,1554,0.4817440511424105,0.5,True,328.0,838.0,1.0,774.0,1
1555,1555,0.5898133014507307,0.6,True,363.0,518.0,1.0,619.0,1
1556,1556,0.16557354843219096,0.2,True,277.0,621.0,1.0,4102.0,1
1557,1557,0.6384134011193261,0.6,True,408.0,947.0,1.0,325.0,1
1558,1558,-0.14804553738437076,-0.1,False,461.0,542.0,0.0,3997.0,1
1559,1559,-0.7069206146691087,-0.7,False,379.0,526.0,0.0,645.0,1
1560,1560,-0.7043535875563012,-0.7,False,283.0,883.0,0.0,564.0,1
1561,1561,0.5744251938071738,0.6,True,358.0,523.0,1.0,529.0,1
1562,1562,-0.8849880577142033,-0.9,False,369.0,957.0,0.0,294.0,1
1563,1563,-0.6671219884401554,-0.7,False,428.0,862.0,0.0,1270.0,1
1564,1564,-0.5124668294960162,-0.5,False,460.0,662.0,0.0,498.0,1
1565,1565,0.7672513679071093,0.8,True,331.0,718.0,1.0,111.0,1
1566,1566,0.5867043159691196,0.6,True,397.0,799.0,1.0,204.0,1
1567,1567,0.6408175387138442,0.6,True,293.0,846.0,1.0,601.0,1
1568,1568,0.014238192399449678,0.0,True,300.0,572.0,0.0,4128.0,0
1569,1569,-0.7948420605405453,-0.8,False,436.0,985.0,0.0,1029.0,1
1570,1570,-0.8004659131702998,-0.8,False,316.0,915.0,0.0,329.0,1
1571,1571,0.9789030458334074,1.0,True,410.0,631.0,1.0,269.0,1
1572,1572,0.6825938841134931,0.7,True,474.0,833.0,1.0,673.0,1
1573,1573,-0.5820061556942624,-0.6,False,425.0,958.0,0.0,277.0,1
1574,1574,-0.9815910632073521,-1.0,False,459.0,600.0,0.0,101.0,1
1575,1575,0.31576604038029976,0.3,True,320.0,543.0,1.0,2877.0,1
1576,1576,0.017095838934810148,0.0,True,423.0,873.0,1.0,2324.0,1
1577,1577,-0.4161550142987003,-0.4,False,282.0,565.0,0.0,643.0,1
1578,1578,0.9132111701037502,0.9,True,280.0,760.0,1.0,740.0,1
1579,1579,-0.30373641113032424,-0.3,False,255.0,720.0,0.0,1035.0,1
1580,1580,-0.5439356814479321,-0.5,False,288.0,886.0,0.0,526.0,1
1581,1581,0.4413764496731418,0.4,True,271.0,966.0,1.0,153.0,1
1582,1582,-0.025488150457811498,-0.0,False,266.0,951.0,0.0,3123.0,1
1583,1583,-0.943618709490692,-0.9,False,311.0,796.0,0.0,233.0,1
1584,1584,0.07775098100730449,0.1,True,381.0,790.0,1.0,699.0,1
1585,1585,-0.458280758612565,-0.5,False,404.0,539.0,0.0,747.0,1
1586,1586,0.38042805926785217,0.4,True,341.0,533.0,1.0,1566.0,1
1587,1587,-0.8473291371445293,-0.8,False,322.0,630.0,0.0,378.0,1
1588,1588,-0.31377238911422634,-0.3,False,343.0,509.0,0.0,2508.0,1
1589,1589,-0.7032689969048831,-0.7,False,467.0,797.0,0.0,676.0,1
1590,1590,-0.42399889673868096,-0.4,False,268.0,732.0,0.0,950.0,1
1591,1591,0.8166183008093297,0.8,True,310.0,787.0,1.0,703.0,1
