,trial,coherence,coherence_bin,correct_side,target_onset,checker_onset,decision,decision_time,correct_decision,g0,gSlope
0,0,0.7082616276559246,0.7,0,254.0,825.0,0.0,381.0,1,0.38350498098049873,0.0
1,1,-0.1509589222990837,-0.2,1,401.0,632.0,1.0,817.0,1,0.5487252002263412,0.0
2,2,0.7758847620810567,0.8,0,263.0,551.0,0.0,-274.0,1,0.5968868921823127,0.0
3,3,-0.5697173481720375,-0.6,1,412.0,986.0,1.0,162.0,1,0.4857315611319833,0.0
4,4,-0.9606990627489032,-1.0,1,269.0,676.0,1.0,105.0,1,0.44390195373542357,0.0
5,5,-0.43614758867570735,-0.4,1,354.0,706.0,1.0,3940.0,1,0.31399486717252184,0.0
6,6,-0.1422112592620619,-0.1,1,299.0,632.0,1.0,129.0,1,0.5508368902574179,0.0
7,7,-0.8289012838724539,-0.8,1,344.0,953.0,0.0,-757.0,0,0.5754371430812172,0.0
8,8,-0.6011913892872607,-0.6,1,449.0,848.0,0.0,-607.0,0,0.5743591667125922,0.0
9,9,0.79966506314803,0.8,0,325.0,620.0,0.0,265.0,1,0.5414857043772104,0.0
10,10,-0.8658985619815021,-0.9,1,323.0,710.0,1.0,187.0,1,0.36780677126738875,0.0
11,11,-0.03699337685559212,-0.0,1,261.0,924.0,0.0,465.0,0,0.5234695434714542,0.0
12,12,-0.844331971803951,-0.8,1,379.0,901.0,1.0,60.0,1,0.5165456493550332,0.0
13,13,-0.761517765174409,-0.8,1,263.0,529.0,1.0,88.0,1,0.510167404688993,0.0
14,14,0.911869264791336,0.9,0,396.0,915.0,0.0,189.0,1,0.5676809201190938,0.0
15,15,0.8407834292088971,0.8,0,366.0,687.0,0.0,-403.0,1,0.5370488054245748,0.0
16,16,0.5238420236664347,0.5,0,357.0,756.0,0.0,297.0,1,0.4091779048795118,0.0
17,17,-0.6385675545976957,-0.6,1,491.0,830.0,1.0,49.0,1,0.5319102121969392,0.0
18,18,0.06339064404100392,0.1,0,347.0,918.0,1.0,-685.0,0,0.5578675392457443,0.0
19,19,-0.32784149197794443,-0.3,1,309.0,726.0,1.0,-865.0,1,0.5799422863390045,0.0
20,20,0.6170375195297124,0.6,0,363.0,893.0,0.0,164.0,1,0.4744489562790176,0.0
21,21,-0.2650676757629957,-0.3,1,321.0,636.0,1.0,4043.0,1,0.3702068982282487,0.0
22,22,0.41921643886627846,0.4,0,476.0,795.0,1.0,-531.0,0,0.5018320995473802,0.0
23,23,-0.6683177811373209,-0.7,1,316.0,820.0,1.0,1414.0,1,0.3432427575341331,0.0
24,24,0.8212693595054052,0.8,0,280.0,866.0,0.0,314.0,1,0.3850941379176765,0.0
25,25,0.8892973965449305,0.9,0,376.0,680.0,1.0,-366.0,0,0.4689217008173362,0.0
26,26,-0.5528048314936527,-0.6,1,337.0,728.0,1.0,295.0,1,0.4259088157299084,0.0
27,27,0.5552016074255532,0.6,0,395.0,851.0,0.0,604.0,1,0.3911975331886163,0.0
28,28,-0.6953368681437009,-0.7,1,328.0,603.0,1.0,879.0,1,0.34236258339487635,0.0
29,29,0.4609295356996721,0.5,0,452.0,869.0,0.0,1339.0,1,0.34349697338422314,0.0
30,30,-0.839945386442086,-0.8,1,270.0,541.0,1.0,299.0,1,0.4336150874858594,0.0
31,31,-0.4544428517188557,-0.5,1,276.0,954.0,1.0,410.0,1,0.380347751873711,0.0
32,32,-0.8370080496526942,-0.8,1,484.0,653.0,1.0,-857.0,1,0.5953848207109713,0.0
33,33,0.6969135463698368,0.7,0,302.0,529.0,0.0,239.0,1,0.46839420382514185,0.0
34,34,0.5107713841187049,0.5,0,332.0,887.0,1.0,-729.0,0,0.566143641515421,0.0
35,35,-0.6823235115952826,-0.7,1,459.0,855.0,1.0,26.0,1,0.5678912518010091,0.0
36,36,0.9967008708149137,1.0,0,478.0,700.0,0.0,1102.0,1,0.3005323474242156,0.0
37,37,-0.6523185877143287,-0.7,1,408.0,714.0,1.0,1088.0,1,0.34211852224717537,0.0
38,38,0.8466992513312896,0.8,0,463.0,916.0,0.0,261.0,1,0.35905042778413343,0.0
39,39,-0.39626840987902123,-0.4,1,420.0,697.0,1.0,183.0,1,0.3838587446209609,0.0
40,40,-0.29285097103185764,-0.3,1,333.0,976.0,1.0,-319.0,1,0.5196846750278503,0.0
41,41,-0.7253112264623025,-0.7,1,255.0,764.0,1.0,-39.0,1,0.5225280261003411,0.0
42,42,0.12495089149719374,0.1,0,297.0,734.0,1.0,-351.0,0,0.5499511883166076,0.0
43,43,-0.030247498104343462,-0.0,1,271.0,781.0,0.0,298.0,0,0.42240566286711045,0.0
44,44,-0.5340582925633539,-0.5,1,436.0,838.0,1.0,-884.0,1,0.5053527580955176,0.0
45,45,0.47163485544203354,0.5,0,310.0,773.0,1.0,-513.0,0,0.5230207322047644,0.0
46,46,0.9661081373473919,1.0,0,262.0,712.0,0.0,186.0,1,0.33037733518017937,0.0
47,47,-0.03852301944798553,-0.0,1,481.0,733.0,0.0,-1054.0,0,0.57124481623345,0.0
48,48,-0.9406059811302632,-0.9,1,309.0,967.0,1.0,-1116.0,1,0.5603580919912021,0.0
49,49,-0.33748539885624407,-0.3,1,387.0,503.0,1.0,-700.0,1,0.5447190331299846,0.0
50,50,0.984047238434002,1.0,0,268.0,536.0,0.0,86.0,1,0.5759189265509564,0.0
51,51,0.6226216976016647,0.6,0,492.0,818.0,0.0,-150.0,1,0.48984639737441804,0.0
52,52,0.21268937838111612,0.2,0,425.0,701.0,0.0,1064.0,1,0.3976379799100217,0.0
53,53,0.700398513426107,0.7,0,342.0,777.0,1.0,-839.0,0,0.5645171474617421,0.0
54,54,-0.7975646010619888,-0.8,1,430.0,876.0,1.0,194.0,1,0.33791153637759674,0.0
55,55,-0.3344215368045209,-0.3,1,261.0,974.0,1.0,-1015.0,1,0.5540486345989528,0.0
56,56,-0.9275207045618745,-0.9,1,357.0,898.0,1.0,105.0,1,0.39378519050587124,0.0
57,57,0.23768812085005164,0.2,0,429.0,628.0,0.0,2483.0,1,0.3760952566040311,0.0
58,58,0.25457291083004874,0.3,0,263.0,612.0,0.0,135.0,1,0.4722322988730232,0.0
59,59,-0.21478959974050493,-0.2,1,387.0,661.0,1.0,942.0,1,0.47897850963617006,0.0
60,60,0.3174775352821875,0.3,0,457.0,710.0,0.0,853.0,1,0.4173675156043917,0.0
61,61,0.19745522611305977,0.2,0,353.0,507.0,1.0,-440.0,0,0.5939836770386776,0.0
62,62,-0.8278207676165621,-0.8,1,452.0,506.0,1.0,182.0,1,0.3745636250817882,0.0
63,63,0.847912864895146,0.8,0,460.0,754.0,1.0,-444.0,0,0.5830722163341764,0.0
64,64,-0.8494326911552221,-0.8,1,445.0,901.0,1.0,-1276.0,1,0.5772064259933267,0.0
65,65,0.3076945828160982,0.3,0,331.0,899.0,0.0,3470.0,1,0.3549687300050027,0.0
66,66,-0.9695416552509124,-1.0,1,316.0,671.0,1.0,273.0,1,0.49225169673336727,0.0
67,67,-0.028320660109516727,-0.0,1,465.0,964.0,0.0,3571.0,0,0.4336294200302947,0.0
68,68,0.6071057611826867,0.6,0,263.0,572.0,0.0,255.0,1,0.42531912165348396,0.0
69,69,0.36430861512023527,0.4,0,457.0,986.0,0.0,317.0,1,0.56852058835685,0.0
70,70,0.20599179501828524,0.2,0,321.0,696.0,0.0,3983.0,1,0.36292647852061816,0.0
71,71,0.8274815823209467,0.8,0,400.0,901.0,0.0,119.0,1,0.38132259297465293,0.0
72,72,-0.8238277462813959,-0.8,1,392.0,665.0,1.0,533.0,1,0.347447518092343,0.0
73,73,0.8805203425799246,0.9,0,297.0,658.0,0.0,335.0,1,0.3398280647533027,0.0
74,74,-0.46903748143905344,-0.5,1,278.0,547.0,1.0,4175.0,1,0.3484555788925048,0.0
75,75,-0.3827828042350292,-0.4,1,387.0,611.0,1.0,22.0,1,0.5087177664217679,0.0
76,76,0.5696500886753091,0.6,0,290.0,657.0,0.0,203.0,1,0.45353827599230345,0.0
77,77,-0.770793509621118,-0.8,1,321.0,929.0,1.0,1020.0,1,0.3056779327030333,0.0
78,78,-0.6428695711591343,-0.6,1,256.0,847.0,1.0,1387.0,1,0.3327480320500631,0.0
79,79,-0.9210093308407472,-0.9,1,310.0,681.0,1.0,169.0,1,0.37019062219317234,0.0
80,80,-0.5464867069695734,-0.5,1,493.0,554.0,1.0,3953.0,1,0.3029432382023927,0.0
81,81,-0.1515465988682967,-0.2,1,453.0,840.0,1.0,3707.0,1,0.30771486886386235,0.0
82,82,-0.7449161166538258,-0.7,1,260.0,918.0,1.0,32.0,1,0.48403607815449967,0.0
83,83,-0.14755055230744452,-0.1,1,405.0,904.0,1.0,3691.0,1,0.34375915710175986,0.0
84,84,-0.766928148629636,-0.8,1,282.0,546.0,1.0,142.0,1,0.5190224137578501,0.0
85,85,0.4908645307519599,0.5,0,330.0,765.0,0.0,95.0,1,0.4673709753194902,0.0
86,86,0.6105262852538571,0.6,0,430.0,569.0,0.0,-799.0,1,0.5823515176267249,0.0
87,87,0.2729416261022881,0.3,0,388.0,984.0,0.0,3628.0,1,0.3916023383715434,0.0
88,88,-0.5672021311268998,-0.6,1,356.0,835.0,1.0,559.0,1,0.3273526440916545,0.0
89,89,0.3507884982767484,0.4,0,295.0,904.0,0.0,-169.0,1,0.4893781572255606,0.0
90,90,-0.08045198834190814,-0.1,1,417.0,837.0,1.0,-414.0,1,0.4227133366531834,0.0
91,91,0.24466996296283394,0.2,0,450.0,678.0,0.0,402.0,1,0.45991880649720396,0.0
92,92,0.5416910380856399,0.5,0,472.0,696.0,0.0,2282.0,1,0.33471188092367216,0.0
93,93,-0.6980526788864143,-0.7,1,479.0,597.0,0.0,-876.0,0,0.5184169771494147,0.0
94,94,0.31967828707352575,0.3,0,471.0,695.0,0.0,-416.0,1,0.5703468338495228,0.0
95,95,0.2001562907178771,0.2,0,292.0,770.0,0.0,1198.0,1,0.3916878375342761,0.0
96,96,-0.6297986652152783,-0.6,1,375.0,565.0,1.0,-170.0,1,0.49440519939457506,0.0
97,97,-0.8356130661046048,-0.8,1,416.0,518.0,1.0,166.0,1,0.44346194465280353,0.0
98,98,-0.2339648010925448,-0.2,1,398.0,558.0,1.0,2064.0,1,0.4252287910802416,0.0
99,99,0.10559906605968661,0.1,0,344.0,913.0,1.0,3743.0,0,0.3142417690887672,0.0
100,100,-0.7890593623662987,-0.8,1,334.0,880.0,1.0,416.0,1,0.35329157830086444,0.0
101,101,0.06680518296242788,0.1,0,286.0,836.0,0.0,3878.0,1,0.31744121013631943,0.0
102,102,0.06688577481627456,0.1,0,480.0,861.0,0.0,2549.0,1,0.5279464880894839,0.0
103,103,0.13196592868263202,0.1,0,480.0,737.0,0.0,3783.0,1,0.3027359817846086,0.0
104,104,-0.9202622382489016,-0.9,1,389.0,604.0,1.0,-313.0,1,0.5646282887167509,0.0
105,105,-0.9443887051608755,-0.9,1,421.0,708.0,1.0,301.0,1,0.34861766372194325,0.0
106,106,-0.6081591941441069,-0.6,1,459.0,526.0,1.0,495.0,1,0.382559769783361,0.0
107,107,0.20746108053183976,0.2,0,272.0,851.0,0.0,157.0,1,0.40190829401124134,0.0
108,108,0.5031603247319116,0.5,0,373.0,513.0,0.0,284.0,1,0.4158015739480218,0.0
109,109,0.24658682428045098,0.2,0,286.0,656.0,0.0,1008.0,1,0.46465463126758566,0.0
110,110,-0.7936131172886689,-0.8,1,384.0,548.0,1.0,268.0,1,0.4252221862372411,0.0
111,111,-0.971099463057326,-1.0,1,407.0,780.0,1.0,-757.0,1,0.5318814183940973,0.0
112,112,-0.36100288105336387,-0.4,1,418.0,926.0,1.0,196.0,1,0.5541827415875691,0.0
113,113,-0.6185446926677611,-0.6,1,393.0,753.0,1.0,174.0,1,0.35340769448655074,0.0
114,114,-0.5287736447852374,-0.5,1,270.0,772.0,1.0,-582.0,1,0.568687517324046,0.0
115,115,0.9146780742949321,0.9,0,388.0,882.0,0.0,-510.0,1,0.5049933252774675,0.0
116,116,-0.7477672779192477,-0.7,1,272.0,869.0,1.0,309.0,1,0.33630622975958147,0.0
117,117,-0.6325981439676449,-0.6,1,478.0,939.0,1.0,233.0,1,0.3559850273029679,0.0
118,118,0.13172077677554084,0.1,0,422.0,554.0,1.0,4024.0,0,0.3065540431244681,0.0
119,119,-0.7470330484978909,-0.7,1,416.0,605.0,1.0,39.0,1,0.5095082827768656,0.0
120,120,-0.13378762793184396,-0.1,1,465.0,520.0,1.0,-135.0,1,0.46766920920650956,0.0
121,121,-0.1987836488978112,-0.2,1,474.0,798.0,1.0,3728.0,1,0.3055232013250579,0.0
122,122,0.9986367562589864,1.0,0,285.0,812.0,0.0,283.0,1,0.3504667529625369,0.0
123,123,0.7761470029904052,0.8,0,460.0,809.0,0.0,181.0,1,0.3768186172133173,0.0
124,124,0.44076902063244994,0.4,0,334.0,861.0,0.0,-995.0,1,0.5595516100926221,0.0
125,125,-0.6198346023782018,-0.6,1,299.0,864.0,1.0,657.0,1,0.4726397811776235,0.0
126,126,0.18669193379743554,0.2,0,409.0,914.0,1.0,-1053.0,0,0.5640345326476204,0.0
127,127,0.1936103501490034,0.2,0,375.0,514.0,0.0,-539.0,1,0.5339111861455769,0.0
128,128,-0.7813414789295283,-0.8,1,324.0,540.0,1.0,1596.0,1,0.30374520911029734,0.0
129,129,-0.6036863077220109,-0.6,1,387.0,588.0,1.0,3535.0,1,0.3283292057064866,0.0
130,130,0.9314884786416691,0.9,0,454.0,768.0,0.0,168.0,1,0.53250090275344,0.0
131,131,0.7865838233664946,0.8,0,310.0,963.0,0.0,1297.0,1,0.31530595735135875,0.0
132,132,0.21011449972333152,0.2,0,453.0,845.0,0.0,3702.0,1,0.363568758862129,0.0
133,133,0.13542519782520213,0.1,0,419.0,956.0,0.0,2185.0,1,0.45128418517416247,0.0
134,134,0.4338917436716565,0.4,0,333.0,780.0,1.0,-613.0,0,0.5640160052148417,0.0
135,135,0.15141871709295707,0.2,0,423.0,759.0,0.0,2098.0,1,0.4053506066373732,0.0
136,136,-0.22928867540796904,-0.2,1,375.0,533.0,1.0,82.0,1,0.5298198673182983,0.0
137,137,0.647955373283251,0.6,0,482.0,768.0,0.0,70.0,1,0.4542793397070605,0.0
138,138,-0.7095722571825,-0.7,1,286.0,896.0,1.0,-742.0,1,0.45973737368962414,0.0
139,139,0.6546500328402376,0.7,0,446.0,606.0,1.0,-682.0,0,0.5376527169644343,0.0
140,140,0.6643597914236079,0.7,0,309.0,893.0,0.0,3798.0,1,0.31232874159250124,0.0
141,141,-0.5533896411661658,-0.6,1,367.0,904.0,1.0,839.0,1,0.33679244191056856,0.0
142,142,0.22370010432273868,0.2,0,380.0,606.0,0.0,-816.0,1,0.5659919296940592,0.0
143,143,0.8881840603581965,0.9,0,343.0,582.0,0.0,-435.0,1,0.5672514408470909,0.0
144,144,0.47115706794996903,0.5,0,430.0,920.0,0.0,390.0,1,0.40402264349464806,0.0
145,145,-0.6702940219170352,-0.7,1,273.0,558.0,1.0,179.0,1,0.547698660706263,0.0
146,146,-0.7200497542200692,-0.7,1,497.0,807.0,1.0,156.0,1,0.37285777558725375,0.0
147,147,-0.8617011405439137,-0.9,1,278.0,886.0,1.0,286.0,1,0.3236049074585359,0.0
148,148,0.36932094689616335,0.4,0,331.0,991.0,1.0,-952.0,0,0.566967109942693,0.0
149,149,-0.6997585033859743,-0.7,1,331.0,999.0,0.0,-520.0,0,0.5476638303588106,0.0
150,150,-0.5592653641797989,-0.6,1,293.0,559.0,1.0,648.0,1,0.31522518158004176,0.0
151,151,0.33650829773890534,0.3,0,321.0,942.0,1.0,-1013.0,0,0.5462539620167742,0.0
152,152,-0.10377202407878938,-0.1,1,435.0,923.0,1.0,3642.0,1,0.4122276245668576,0.0
153,153,0.8687841599529784,0.9,0,416.0,848.0,0.0,256.0,1,0.4407208461815871,0.0
154,154,-0.9242518087238656,-0.9,1,400.0,785.0,1.0,235.0,1,0.3360855807569058,0.0
155,155,-0.4307549063907756,-0.4,1,457.0,915.0,1.0,1668.0,1,0.35861909171491513,0.0
156,156,0.05304586882838147,0.1,0,368.0,928.0,0.0,-1186.0,1,0.55707638010756,0.0
157,157,-0.09485447425705673,-0.1,1,363.0,589.0,1.0,4048.0,1,0.3361230480251017,0.0
158,158,0.11684137539016515,0.1,0,376.0,586.0,1.0,-272.0,0,0.5083750828937711,0.0
159,159,-0.2880055391962524,-0.3,1,497.0,803.0,1.0,1070.0,1,0.43530458041123465,0.0
160,160,-0.7967501392252343,-0.8,1,389.0,928.0,1.0,113.0,1,0.45261446135985295,0.0
161,161,-0.30739190627354707,-0.3,1,302.0,839.0,0.0,-601.0,0,0.5219980410252258,0.0
162,162,-0.4479868420671145,-0.4,1,268.0,777.0,1.0,595.0,1,0.374177065990273,0.0
163,163,0.9741506339731805,1.0,0,362.0,898.0,0.0,140.0,1,0.371697784722606,0.0
164,164,0.6208780404104448,0.6,0,383.0,922.0,0.0,265.0,1,0.39128136998322083,0.0
165,165,0.2342150623730037,0.2,0,266.0,727.0,0.0,427.0,1,0.4685732951068971,0.0
166,166,0.20002826154482078,0.2,0,260.0,567.0,0.0,443.0,1,0.498101682214,0.0
167,167,0.8995529346932123,0.9,0,490.0,827.0,0.0,173.0,1,0.41420816848084796,0.0
168,168,0.5484475467035057,0.5,0,350.0,587.0,0.0,133.0,1,0.5918046672270509,0.0
169,169,0.3184375213153663,0.3,0,288.0,541.0,0.0,421.0,1,0.40257888133365394,0.0
170,170,-0.6928861657201184,-0.7,1,445.0,731.0,1.0,1044.0,1,0.3782649180709142,0.0
171,171,0.12214151833791465,0.1,0,493.0,541.0,0.0,3966.0,1,0.3802997026109196,0.0
172,172,-0.5333229001728801,-0.5,1,422.0,800.0,1.0,2048.0,1,0.33123246289476516,0.0
173,173,-0.9877862705716229,-1.0,1,351.0,971.0,1.0,28.0,1,0.43257979658779844,0.0
174,174,0.2402670864555949,0.2,0,444.0,630.0,1.0,66.0,0,0.5635141595630724,0.0
175,175,0.8731556698149758,0.9,0,265.0,633.0,1.0,-768.0,0,0.55115446140268,0.0
176,176,-0.4714266556699085,-0.5,1,463.0,701.0,1.0,-384.0,1,0.4822810147301081,0.0
177,177,-0.24309782429514804,-0.2,1,314.0,719.0,1.0,3967.0,1,0.336018850960121,0.0
178,178,0.5860693639126429,0.6,0,267.0,945.0,0.0,1178.0,1,0.3735176355747695,0.0
179,179,-0.06663175258188136,-0.1,1,454.0,570.0,1.0,1746.0,1,0.4014089066134963,0.0
180,180,0.20875477272934195,0.2,0,369.0,850.0,0.0,1381.0,1,0.5136869931852489,0.0
181,181,-0.35500818857778604,-0.4,1,388.0,608.0,1.0,304.0,1,0.5200374761870354,0.0
182,182,0.3760211936886604,0.4,0,470.0,696.0,0.0,3834.0,1,0.33892382600791104,0.0
183,183,0.2640050530760789,0.3,0,421.0,785.0,0.0,284.0,1,0.4490721574085492,0.0
184,184,-0.6463548965490438,-0.6,1,273.0,733.0,1.0,1564.0,1,0.36883642476148626,0.0
185,185,0.46614017048756873,0.5,0,253.0,730.0,1.0,-103.0,0,0.47792874753611964,0.0
186,186,-0.6238899189606666,-0.6,1,433.0,599.0,1.0,8.0,1,0.425516484036222,0.0
187,187,-0.9752518956451708,-1.0,1,393.0,563.0,1.0,114.0,1,0.38413659921464416,0.0
188,188,-0.04944932432213189,-0.0,1,279.0,672.0,0.0,-841.0,0,0.5918215493770862,0.0
189,189,-0.06597197290632151,-0.1,1,448.0,935.0,1.0,3617.0,1,0.3904941354561938,0.0
190,190,0.2257497837970548,0.2,0,344.0,638.0,0.0,4018.0,1,0.3001432273358271,0.0
191,191,0.25698268028885396,0.3,0,440.0,679.0,0.0,-709.0,1,0.44717792722365124,0.0
192,192,0.9125805320696234,0.9,0,331.0,851.0,0.0,128.0,1,0.4141262098679944,0.0
193,193,-0.0916818083036639,-0.1,1,315.0,658.0,1.0,4027.0,1,0.413362117734734,0.0
194,194,0.9790307225927373,1.0,0,394.0,715.0,0.0,221.0,1,0.4815237004349102,0.0
195,195,-0.9433993880741169,-0.9,1,498.0,842.0,1.0,410.0,1,0.309758560924137,0.0
196,196,0.1128508566575861,0.1,0,258.0,524.0,0.0,488.0,1,0.4988866834355995,0.0
197,197,-0.48057516650215604,-0.5,1,329.0,904.0,1.0,3767.0,1,0.31044029948760477,0.0
198,198,0.11184540976240642,0.1,0,388.0,805.0,1.0,467.0,0,0.509913981498198,0.0
199,199,0.4188749895711865,0.4,0,318.0,971.0,0.0,1881.0,1,0.38797145874192895,0.0
200,200,-0.9647380750173487,-1.0,1,454.0,541.0,1.0,165.0,1,0.3920882485414173,0.0
201,201,-0.11997828840733749,-0.1,1,435.0,807.0,1.0,768.0,1,0.4641725571559556,0.0
202,202,0.2055237528977243,0.2,0,273.0,804.0,0.0,-427.0,1,0.49399411228538875,0.0
203,203,0.45393105846348436,0.5,0,435.0,644.0,0.0,491.0,1,0.591749019539511,0.0
204,204,-0.2512113370944469,-0.3,1,349.0,546.0,1.0,4105.0,1,0.3542741572085851,0.0
205,205,-0.5331360568043171,-0.5,1,318.0,579.0,0.0,-677.0,0,0.5924613319205063,0.0
206,206,-0.5409189644598122,-0.5,1,467.0,815.0,1.0,488.0,1,0.4375087099285164,0.0
207,207,-0.20434060099037898,-0.2,1,265.0,852.0,0.0,-427.0,0,0.49128849460212665,0.0
208,208,0.8392970613652797,0.8,0,441.0,632.0,0.0,227.0,1,0.4632499883666662,0.0
209,209,0.37141084970563587,0.4,0,462.0,813.0,0.0,355.0,1,0.4888510304661374,0.0
210,210,0.2407435454787843,0.2,0,282.0,747.0,1.0,-889.0,0,0.5866966519697707,0.0
211,211,0.5132294440309904,0.5,0,401.0,640.0,0.0,849.0,1,0.3516407463425536,0.0
212,212,-0.8681546077518585,-0.9,1,294.0,872.0,0.0,-486.0,0,0.4314694576687083,0.0
213,213,0.45680315063093446,0.5,0,444.0,758.0,0.0,8.0,1,0.5580366389856033,0.0
214,214,-0.5371627694052774,-0.5,1,475.0,581.0,1.0,34.0,1,0.5220090720649823,0.0
215,215,0.9481816993614505,0.9,0,379.0,744.0,0.0,227.0,1,0.40293343935375703,0.0
216,216,0.0981587190809281,0.1,0,497.0,622.0,1.0,3881.0,0,0.34433803756578074,0.0
217,217,0.3938088927587524,0.4,0,431.0,908.0,0.0,351.0,1,0.5881246379733626,0.0
218,218,-0.8816341215866035,-0.9,1,353.0,673.0,1.0,414.0,1,0.31895147725706213,0.0
219,219,0.1253093880827345,0.1,0,402.0,594.0,0.0,4004.0,1,0.34619335684393004,0.0
220,220,0.39734387409626604,0.4,0,437.0,925.0,0.0,788.0,1,0.4296090010942965,0.0
221,221,0.5574623325047652,0.6,0,297.0,719.0,0.0,364.0,1,0.5090556451101935,0.0
222,222,0.09167125671441068,0.1,0,306.0,736.0,0.0,-482.0,1,0.5467756303403429,0.0
223,223,-0.942414518616735,-0.9,1,340.0,587.0,1.0,153.0,1,0.3855739532591772,0.0
224,224,-0.07974188803861737,-0.1,1,465.0,790.0,1.0,3305.0,1,0.45837409726279144,0.0
225,225,-0.3194159427512011,-0.3,1,494.0,821.0,1.0,-565.0,1,0.45605707388895106,0.0
226,226,0.45163326672699644,0.5,0,472.0,873.0,0.0,3655.0,1,0.31572985382071483,0.0
227,227,-0.7450469717168271,-0.7,1,451.0,926.0,1.0,283.0,1,0.3511249870614744,0.0
228,228,0.6097749887008712,0.6,0,350.0,769.0,0.0,2681.0,1,0.3117176383369364,0.0
229,229,-0.8281883164764696,-0.8,1,416.0,978.0,1.0,156.0,1,0.3978102235359561,0.0
230,230,-0.6413690179341482,-0.6,1,296.0,543.0,1.0,951.0,1,0.34373301982589444,0.0
231,231,0.053029621601585086,0.1,0,465.0,682.0,0.0,3853.0,1,0.34503898551959444,0.0
232,232,0.6696819202651711,0.7,0,334.0,970.0,0.0,356.0,1,0.4736413555909318,0.0
233,233,-0.29234389298088237,-0.3,1,257.0,674.0,1.0,-131.0,1,0.4649884504671986,0.0
234,234,0.4986613618471061,0.5,0,404.0,671.0,0.0,165.0,1,0.467116282282615,0.0
235,235,0.6491198971776724,0.6,0,382.0,952.0,1.0,-654.0,0,0.4284490835842706,0.0
236,236,-0.6402915572956034,-0.6,1,377.0,859.0,1.0,3764.0,1,0.3084465661568105,0.0
237,237,0.8597740400438996,0.9,0,285.0,622.0,0.0,2313.0,1,0.3169275799715981,0.0
238,238,-0.7472000945493564,-0.7,1,474.0,785.0,1.0,141.0,1,0.5284828138706121,0.0
239,239,-0.983258760459041,-1.0,1,266.0,917.0,1.0,37.0,1,0.5363046214839635,0.0
240,240,0.8535358652231595,0.9,0,436.0,676.0,1.0,-802.0,0,0.5572766295866411,0.0
241,241,-0.01576318868542681,-0.0,1,341.0,844.0,1.0,5.0,1,0.5142613875042827,0.0
242,242,-0.2100759729074062,-0.2,1,499.0,803.0,0.0,-1012.0,0,0.529445413745568,0.0
243,243,0.13055463714544913,0.1,0,367.0,645.0,1.0,-362.0,0,0.47578528811026777,0.0
244,244,-0.8651556730347281,-0.9,1,400.0,885.0,0.0,-905.0,0,0.5641717357750531,0.0
245,245,-0.8553646651909135,-0.9,1,432.0,833.0,1.0,-1035.0,1,0.539253636663257,0.0
246,246,0.789774431676213,0.8,0,308.0,883.0,0.0,299.0,1,0.41174475814086575,0.0
247,247,0.0032021676880396033,0.0,0,459.0,854.0,1.0,-1093.0,0,0.5052402652030218,0.0
248,248,-0.920420711004643,-0.9,1,460.0,695.0,1.0,-85.0,1,0.4956224614302366,0.0
249,249,0.7520185811418953,0.8,0,348.0,699.0,0.0,323.0,1,0.40159588837777954,0.0
250,250,-0.4016897513436719,-0.4,1,334.0,847.0,1.0,169.0,1,0.5329139609105229,0.0
251,251,-0.6837417764268223,-0.7,1,476.0,634.0,0.0,-590.0,0,0.45174261298881335,0.0
252,252,-0.2680559997037919,-0.3,1,285.0,666.0,1.0,1849.0,1,0.4454623198556928,0.0
253,253,-0.10146533131725377,-0.1,1,357.0,606.0,0.0,397.0,0,0.48806555733317414,0.0
254,254,0.8563219155385238,0.9,0,445.0,907.0,0.0,118.0,1,0.4649997006351364,0.0
255,255,0.05964564234997294,0.1,0,492.0,736.0,0.0,-458.0,1,0.5824445127226675,0.0
256,256,0.2976112583678514,0.3,0,270.0,909.0,0.0,191.0,1,0.5170150689721738,0.0
257,257,-0.07966212163597763,-0.1,1,355.0,822.0,1.0,3823.0,1,0.31673999918969703,0.0
258,258,-0.5870946666005676,-0.6,1,368.0,932.0,1.0,-860.0,1,0.5766668921661251,0.0
259,259,0.11046966263488689,0.1,0,370.0,851.0,0.0,3779.0,1,0.3447916382442689,0.0
260,260,0.3348598439071828,0.3,0,471.0,508.0,0.0,-749.0,1,0.5576765579619494,0.0
261,261,0.2860101267979598,0.3,0,277.0,829.0,0.0,414.0,1,0.4481623504575668,0.0
262,262,-0.6970347428891874,-0.7,1,250.0,640.0,1.0,220.0,1,0.4105186779545192,0.0
263,263,-0.21503258039519713,-0.2,1,362.0,899.0,0.0,-1011.0,0,0.5670360666670392,0.0
264,264,0.36538805895926285,0.4,0,382.0,806.0,0.0,3812.0,1,0.31480512302132097,0.0
265,265,0.16643763360438624,0.2,0,478.0,593.0,0.0,3929.0,1,0.3862540922370297,0.0
266,266,-0.12706136258351908,-0.1,1,388.0,989.0,1.0,-657.0,1,0.5549616916592893,0.0
267,267,0.13205996043623358,0.1,0,354.0,903.0,1.0,-797.0,0,0.5636423932395641,0.0
268,268,-0.5920065018640477,-0.6,1,420.0,799.0,1.0,941.0,1,0.3265009144237724,0.0
269,269,0.24587736249645653,0.2,0,457.0,746.0,0.0,3797.0,1,0.3098028033182888,0.0
270,270,0.1639202253373988,0.2,0,291.0,756.0,0.0,-777.0,1,0.50989834326163,0.0
271,271,-0.7789193353337172,-0.8,1,375.0,827.0,1.0,418.0,1,0.3689898833878824,0.0
272,272,-0.840608822622777,-0.8,1,360.0,696.0,0.0,-596.0,0,0.5827793769157421,0.0
273,273,-0.2655591074707482,-0.3,1,395.0,899.0,0.0,-674.0,0,0.585199373075065,0.0
274,274,0.5507732183037974,0.6,0,306.0,681.0,0.0,373.0,1,0.3459206321195947,0.0
275,275,-0.4402538721649705,-0.4,1,353.0,997.0,1.0,320.0,1,0.453016774347307,0.0
276,276,0.09706571608133818,0.1,0,412.0,614.0,0.0,3974.0,1,0.3768739810338577,0.0
277,277,0.5501621925452544,0.6,0,494.0,986.0,1.0,-1370.0,0,0.575730788036033,0.0
278,278,0.10530384930330738,0.1,0,365.0,617.0,0.0,1408.0,1,0.4711071200131477,0.0
279,279,0.35657490466753106,0.4,0,264.0,809.0,1.0,-43.0,0,0.4617186006692464,0.0
280,280,-0.9391101616354394,-0.9,1,466.0,669.0,1.0,235.0,1,0.4849421514912081,0.0
281,281,-0.44775363634063425,-0.4,1,403.0,956.0,1.0,271.0,1,0.46277983545630264,0.0
282,282,-0.5371874499912539,-0.5,1,464.0,528.0,1.0,188.0,1,0.3839151082271338,0.0
283,283,0.13272044401467742,0.1,0,250.0,552.0,0.0,728.0,1,0.5082370843382562,0.0
284,284,0.6837063194729174,0.7,0,304.0,793.0,0.0,163.0,1,0.43168836277647527,0.0
285,285,0.7999279001806112,0.8,0,362.0,614.0,0.0,224.0,1,0.3916658368136682,0.0
286,286,-0.3957385799086013,-0.4,1,405.0,653.0,1.0,332.0,1,0.45387048866154234,0.0
287,287,-0.04115308151624486,-0.0,1,251.0,867.0,0.0,1102.0,0,0.5142861175105363,0.0
288,288,0.18227640113560328,0.2,0,350.0,972.0,0.0,3678.0,1,0.3427271019306236,0.0
289,289,0.5541968953356324,0.6,0,383.0,808.0,1.0,-821.0,0,0.5109395333038069,0.0
290,290,0.43392669271943807,0.4,0,454.0,818.0,0.0,-952.0,1,0.5489387074445696,0.0
291,291,-0.9850468275956186,-1.0,1,381.0,682.0,1.0,-853.0,1,0.5314385174897422,0.0
292,292,0.662289095661196,0.7,0,457.0,803.0,0.0,320.0,1,0.3418858200745582,0.0
293,293,-0.6654862815361384,-0.7,1,261.0,660.0,1.0,-211.0,1,0.45738901304965685,0.0
294,294,-0.06936865954114202,-0.1,1,439.0,559.0,0.0,422.0,0,0.4975889458885652,0.0
295,295,0.2559875274359167,0.3,0,309.0,730.0,0.0,911.0,1,0.4004869638237852,0.0
296,296,-0.6951168425535552,-0.7,1,380.0,722.0,1.0,278.0,1,0.5096005568154548,0.0
297,297,-0.5511594855127562,-0.6,1,356.0,592.0,1.0,3432.0,1,0.3211193261280913,0.0
298,298,0.020059860193476498,0.0,0,337.0,771.0,0.0,1232.0,1,0.4506622026972472,0.0
299,299,-0.5372293304119353,-0.5,1,441.0,945.0,1.0,-1156.0,1,0.5598231360448991,0.0
300,300,0.17848472537017557,0.2,0,258.0,847.0,0.0,305.0,1,0.5692572137157723,0.0
301,301,-0.9919764201568944,-1.0,1,422.0,973.0,1.0,425.0,1,0.3616523836569118,0.0
302,302,0.8579367729165965,0.9,0,477.0,510.0,0.0,253.0,1,0.4728027803399448,0.0
303,303,-0.551721045444628,-0.6,1,369.0,564.0,1.0,377.0,1,0.5411077032951048,0.0
304,304,-0.6470907564532564,-0.6,1,434.0,880.0,1.0,-1104.0,1,0.36947989480645077,0.0
305,305,0.7322695091722082,0.7,0,472.0,987.0,1.0,-929.0,0,0.47909341267903094,0.0
306,306,-0.10783261831571722,-0.1,1,311.0,927.0,1.0,3762.0,1,0.34539349963945837,0.0
307,307,-0.06084501782918372,-0.1,1,344.0,561.0,1.0,945.0,1,0.4522532342117739,0.0
308,308,-0.6102262671935994,-0.6,1,392.0,895.0,1.0,173.0,1,0.4747853508867148,0.0
309,309,-0.20410951176592973,-0.2,1,273.0,514.0,0.0,4213.0,0,0.3294903585398818,0.0
310,310,0.6400222140858434,0.6,0,252.0,587.0,0.0,81.0,1,0.4480788967955941,0.0
311,311,0.8343907446694596,0.8,0,458.0,598.0,1.0,-166.0,0,0.5745363508569348,0.0
312,312,-0.2363995837863968,-0.2,1,340.0,686.0,0.0,-516.0,0,0.5947172080190994,0.0
313,313,-0.31527216874281017,-0.3,1,402.0,982.0,1.0,-954.0,1,0.5788751555790816,0.0
314,314,-0.7846569288285989,-0.8,1,251.0,589.0,1.0,10.0,1,0.5803388506303961,0.0
315,315,0.03716433784257389,0.0,0,277.0,750.0,0.0,3973.0,1,0.44676384264045266,0.0
316,316,-0.6615321791350812,-0.7,1,250.0,501.0,1.0,869.0,1,0.3441414735002521,0.0
317,317,0.8193818836276869,0.8,0,282.0,779.0,0.0,529.0,1,0.3463132194303694,0.0
318,318,-0.1443761827069472,-0.1,1,377.0,536.0,0.0,-123.0,0,0.5990096592084229,0.0
319,319,-0.7871532079840435,-0.8,1,379.0,634.0,1.0,747.0,1,0.3537416854535206,0.0
320,320,0.40032681377823964,0.4,0,311.0,630.0,0.0,4059.0,1,0.3298308224469435,0.0
321,321,0.872884631754834,0.9,0,342.0,845.0,0.0,133.0,1,0.5037355752745697,0.0
322,322,0.8252510672451576,0.8,0,478.0,603.0,0.0,239.0,1,0.42787971689437365,0.0
323,323,-0.479739185455784,-0.5,1,442.0,935.0,1.0,-1067.0,1,0.4452552663050412,0.0
324,324,0.4101883402440636,0.4,0,339.0,892.0,1.0,-51.0,0,0.5457466761401346,0.0
325,325,-0.8902536739504565,-0.9,1,439.0,604.0,1.0,177.0,1,0.46729887334450015,0.0
326,326,-0.9733975126245178,-1.0,1,283.0,992.0,0.0,-935.0,0,0.458726259133109,0.0
327,327,0.9690155360749038,1.0,0,374.0,625.0,0.0,391.0,1,0.31444081548749125,0.0
328,328,-0.7264708754981684,-0.7,1,374.0,815.0,0.0,-759.0,0,0.5445120656591662,0.0
329,329,-0.8243182347657885,-0.8,1,368.0,871.0,1.0,391.0,1,0.3640488397990894,0.0
330,330,0.14010594031543433,0.1,0,459.0,708.0,0.0,483.0,1,0.46132556662533575,0.0
331,331,-0.7963527429231656,-0.8,1,469.0,840.0,1.0,51.0,1,0.39241898918597995,0.0
332,332,-0.17337237427256968,-0.2,1,277.0,711.0,1.0,-358.0,1,0.4527934346807859,0.0
333,333,-0.6366223707332617,-0.6,1,336.0,505.0,0.0,-551.0,0,0.5947355513920083,0.0
334,334,-0.15992404056091947,-0.2,1,363.0,681.0,1.0,3956.0,1,0.32939640380078894,0.0
335,335,0.46837091342707304,0.5,0,313.0,875.0,1.0,-118.0,0,0.4658702888052414,0.0
336,336,-0.37078784246981056,-0.4,1,305.0,514.0,1.0,-199.0,1,0.4876790620734027,0.0
337,337,-0.5892030749110135,-0.6,1,286.0,645.0,1.0,-161.0,1,0.5107141025737689,0.0
338,338,-0.5417581006925478,-0.5,1,460.0,887.0,1.0,303.0,1,0.43461271003293145,0.0
339,339,-0.36348278368343956,-0.4,1,469.0,921.0,1.0,3610.0,1,0.3510046279981193,0.0
340,340,-0.24865576312175208,-0.2,1,319.0,647.0,1.0,1494.0,1,0.4442429165045895,0.0
341,341,0.44288632423463437,0.4,0,446.0,516.0,0.0,2928.0,1,0.34157217400141965,0.0
342,342,-0.22604651720712599,-0.2,1,457.0,724.0,1.0,919.0,1,0.3963009315084559,0.0
343,343,0.9613872869072644,1.0,0,445.0,535.0,0.0,120.0,1,0.4544120965983841,0.0
344,344,0.7775077478366317,0.8,0,299.0,926.0,0.0,435.0,1,0.31678079709079426,0.0
345,345,-0.6585035818282032,-0.7,1,425.0,996.0,1.0,249.0,1,0.4644156807400689,0.0
346,346,-0.6932186745900031,-0.7,1,263.0,813.0,0.0,-476.0,0,0.5974075783134346,0.0
347,347,0.7896920661025264,0.8,0,283.0,908.0,0.0,2799.0,1,0.3017361519945721,0.0
348,348,-0.02092814637488183,-0.0,1,485.0,581.0,1.0,474.0,1,0.5786569126743685,0.0
349,349,0.8120858513478015,0.8,0,405.0,515.0,0.0,420.0,1,0.4192164957974389,0.0
350,350,0.200894489961555,0.2,0,356.0,612.0,0.0,2552.0,1,0.38510508242648217,0.0
351,351,-0.14777269920703207,-0.1,1,477.0,766.0,1.0,2167.0,1,0.4193823924693439,0.0
352,352,0.34741499083600846,0.3,0,381.0,987.0,0.0,292.0,1,0.32653401492383305,0.0
353,353,-0.3955489741786147,-0.4,1,463.0,553.0,1.0,3984.0,1,0.35209482676044757,0.0
354,354,0.7487568724658193,0.7,0,481.0,571.0,0.0,198.0,1,0.4182374478586858,0.0
355,355,-0.7062221359650207,-0.7,1,279.0,660.0,1.0,-859.0,1,0.5710108810014811,0.0
356,356,0.2748591167342507,0.3,0,381.0,912.0,0.0,237.0,1,0.43453576793543847,0.0
357,357,-0.6141346081199208,-0.6,1,343.0,576.0,1.0,221.0,1,0.368425357127602,0.0
358,358,-0.6712763891762215,-0.7,1,399.0,562.0,1.0,279.0,1,0.42201247125679037,0.0
359,359,0.6504270762961821,0.7,0,351.0,991.0,0.0,188.0,1,0.47565494037890144,0.0
360,360,-0.43073556388823486,-0.4,1,479.0,609.0,1.0,-478.0,1,0.5748160160930433,0.0
361,361,0.41393735848612145,0.4,0,302.0,848.0,0.0,960.0,1,0.38560242972053743,0.0
362,362,0.07099576722730938,0.1,0,314.0,732.0,1.0,-276.0,0,0.5930453227958593,0.0
363,363,-0.9982737740454524,-1.0,1,266.0,531.0,1.0,243.0,1,0.43557698585758464,0.0
364,364,0.7481637345468097,0.7,0,303.0,742.0,0.0,55.0,1,0.39108525482390966,0.0
365,365,0.257105266487198,0.3,0,314.0,716.0,0.0,1290.0,1,0.4085047647697585,0.0
366,366,0.2383184905778999,0.2,0,454.0,771.0,1.0,-885.0,0,0.5990932324732263,0.0
367,367,-0.810082732128576,-0.8,1,482.0,858.0,1.0,460.0,1,0.3375705000419209,0.0
368,368,-0.8703980274004846,-0.9,1,459.0,737.0,1.0,214.0,1,0.34165287817578166,0.0
369,369,-0.7522259181630235,-0.8,1,499.0,957.0,1.0,2134.0,1,0.30261015238584565,0.0
370,370,0.019987246607245934,0.0,0,308.0,589.0,0.0,-647.0,1,0.5556786614736484,0.0
371,371,0.9880856504659143,1.0,0,480.0,837.0,0.0,823.0,1,0.3092749303601132,0.0
372,372,-0.17217331294164584,-0.2,1,369.0,921.0,1.0,1570.0,1,0.3897815238045966,0.0
373,373,-0.2930133496753349,-0.3,1,359.0,917.0,1.0,1114.0,1,0.4694250926210487,0.0
374,374,-0.6249275562169128,-0.6,1,309.0,941.0,0.0,-790.0,0,0.5017660284339722,0.0
375,375,0.6096787561884935,0.6,0,389.0,988.0,0.0,463.0,1,0.36357176661237317,0.0
376,376,-0.26861770678613106,-0.3,1,448.0,745.0,1.0,3807.0,1,0.30970582690359943,0.0
377,377,0.5198146437454167,0.5,0,257.0,871.0,0.0,102.0,1,0.5093797528208489,0.0
378,378,0.17446549238776332,0.2,0,314.0,876.0,0.0,1800.0,1,0.40354153244134583,0.0
379,379,0.020100129911332587,0.0,0,274.0,699.0,1.0,4027.0,0,0.32528642476311764,0.0
380,380,0.8053052837182688,0.8,0,441.0,931.0,0.0,238.0,1,0.49361484821000345,0.0
381,381,0.25621329400849,0.3,0,349.0,977.0,0.0,354.0,1,0.3952826593967335,0.0
382,382,0.6273119050334441,0.6,0,473.0,644.0,0.0,203.0,1,0.41291165531977153,0.0
383,383,0.42021388144124905,0.4,0,300.0,548.0,0.0,312.0,1,0.42009410515805345,0.0
384,384,0.04629098429185352,0.0,0,405.0,778.0,1.0,-873.0,0,0.5842658472707626,0.0
385,385,0.6062013041336141,0.6,0,403.0,645.0,0.0,312.0,1,0.43915453516884284,0.0
386,386,-0.7776048223142744,-0.8,1,308.0,989.0,1.0,-707.0,1,0.5634957170356742,0.0
387,387,-0.5201736836448145,-0.5,1,279.0,837.0,1.0,34.0,1,0.4474098566878022,0.0
388,388,0.47576378029348865,0.5,0,458.0,996.0,0.0,276.0,1,0.36575675079401654,0.0
389,389,0.7275913497247453,0.7,0,499.0,997.0,0.0,64.0,1,0.4287177157156198,0.0
390,390,0.7268913202138212,0.7,0,371.0,898.0,0.0,31.0,1,0.5127218551725308,0.0
391,391,0.38864001740321585,0.4,0,368.0,986.0,0.0,-394.0,1,0.505763174545909,0.0
392,392,0.03146983689035432,0.0,0,278.0,873.0,1.0,-801.0,0,0.4670044779969722,0.0
393,393,0.2576402443657797,0.3,0,434.0,923.0,1.0,-487.0,0,0.4791204387472282,0.0
394,394,0.8912776271556424,0.9,0,442.0,956.0,0.0,202.0,1,0.46619228424406534,0.0
395,395,0.9336334322114064,0.9,0,393.0,506.0,1.0,-649.0,0,0.5375206206933787,0.0
396,396,-0.5769028227765785,-0.6,1,361.0,707.0,1.0,502.0,1,0.40925248636337863,0.0
397,397,0.13447440899228202,0.1,0,388.0,992.0,0.0,3620.0,1,0.3164745346799459,0.0
398,398,0.18292601404096875,0.2,0,294.0,731.0,0.0,-195.0,1,0.5207008210834179,0.0
399,399,0.8080584729439428,0.8,0,433.0,933.0,0.0,274.0,1,0.44412627624441947,0.0
400,400,0.8612837892525997,0.9,0,357.0,603.0,0.0,190.0,1,0.43543014734277385,0.0
401,401,-0.21278380348539172,-0.2,1,313.0,903.0,1.0,3784.0,1,0.36351074588560006,0.0
402,402,0.857308133351464,0.9,0,355.0,724.0,0.0,221.0,1,0.4723415317486198,0.0
403,403,-0.3224665530618631,-0.3,1,429.0,957.0,1.0,2414.0,1,0.3242428206590472,0.0
404,404,0.0889038337307253,0.1,0,253.0,696.0,1.0,-729.0,0,0.5690340056290402,0.0
405,405,0.632385148894842,0.6,0,369.0,542.0,0.0,439.0,1,0.4412791989038486,0.0
406,406,-0.5456157399162127,-0.5,1,461.0,994.0,0.0,-1115.0,0,0.48157574525815616,0.0
407,407,0.8744143539637681,0.9,0,314.0,747.0,0.0,319.0,1,0.3625365779433023,0.0
408,408,-0.5665701486530657,-0.6,1,277.0,902.0,1.0,-929.0,1,0.5166526751980862,0.0
409,409,-0.10274748180129079,-0.1,1,296.0,554.0,1.0,720.0,1,0.4484563192700402,0.0
410,410,-0.2572385873059402,-0.3,1,465.0,996.0,1.0,1709.0,1,0.3606512309224091,0.0
411,411,0.26414761774233253,0.3,0,465.0,696.0,0.0,1189.0,1,0.37877317461762694,0.0
412,412,0.700612641559835,0.7,0,338.0,666.0,0.0,376.0,1,0.4038181439031387,0.0
413,413,-0.02896406600219148,-0.0,1,377.0,700.0,0.0,3923.0,0,0.3322678613312559,0.0
414,414,-0.8607065325493843,-0.9,1,373.0,977.0,1.0,130.0,1,0.5189528300315038,0.0
415,415,-0.8396357201455373,-0.8,1,394.0,829.0,1.0,227.0,1,0.38422401826162095,0.0
416,416,0.6267189074812427,0.6,0,357.0,780.0,0.0,-837.0,1,0.5552202995322063,0.0
417,417,-0.581256616946539,-0.6,1,391.0,829.0,1.0,3780.0,1,0.3072912088216653,0.0
418,418,0.5110151604069548,0.5,0,410.0,601.0,0.0,1599.0,1,0.39248058421419507,0.0
419,419,0.20893406858117336,0.2,0,452.0,987.0,0.0,161.0,1,0.4291775216276079,0.0
420,420,-0.5623185332293843,-0.6,1,491.0,934.0,0.0,-285.0,0,0.561378907456784,0.0
421,421,0.6068716867240032,0.6,0,442.0,743.0,0.0,175.0,1,0.3923453515780724,0.0
422,422,0.5622463918518139,0.6,0,390.0,770.0,0.0,690.0,1,0.3738183047610888,0.0
423,423,-0.5352317316131587,-0.5,1,475.0,667.0,1.0,998.0,1,0.36926510297939874,0.0
424,424,-0.21257655559435062,-0.2,1,491.0,532.0,1.0,3977.0,1,0.3407122538661006,0.0
425,425,-0.24453903028363633,-0.2,1,471.0,899.0,1.0,1130.0,1,0.41015525297369465,0.0
426,426,0.23360919902397637,0.2,0,377.0,884.0,0.0,1329.0,1,0.331939483616292,0.0
427,427,-0.3846383072870361,-0.4,1,280.0,715.0,0.0,-215.0,0,0.4753750077614468,0.0
428,428,-0.9139026633336409,-0.9,1,405.0,574.0,0.0,-749.0,0,0.5035130828235074,0.0
429,429,0.10472889458455614,0.1,0,339.0,916.0,1.0,-1005.0,0,0.4993674215861997,0.0
430,430,-0.7865502607243728,-0.8,1,282.0,792.0,1.0,286.0,1,0.43027299410370656,0.0
431,431,-0.8963226459532134,-0.9,1,282.0,719.0,1.0,289.0,1,0.4637210825048231,0.0
432,432,-0.09961618581802467,-0.1,1,311.0,553.0,1.0,4136.0,1,0.316235619969755,0.0
433,433,-0.3481274317945633,-0.3,1,268.0,868.0,1.0,-516.0,1,0.553349949358029,0.0
434,434,0.9645368217277999,1.0,0,455.0,873.0,0.0,402.0,1,0.32226091034483273,0.0
435,435,0.41839658966772864,0.4,0,330.0,793.0,0.0,357.0,1,0.3780184066765296,0.0
436,436,0.978528308311843,1.0,0,312.0,736.0,1.0,-138.0,0,0.43001014848986363,0.0
437,437,-0.0066909051021804,-0.0,1,412.0,694.0,0.0,2274.0,0,0.42575063692319914,0.0
438,438,-0.27171283437775395,-0.3,1,424.0,738.0,1.0,3838.0,1,0.30298827347801793,0.0
439,439,0.8598333558145266,0.9,0,289.0,857.0,1.0,-16.0,0,0.5792569737218269,0.0
440,440,0.6866348856271007,0.7,0,252.0,811.0,0.0,227.0,1,0.4631686188955482,0.0
441,441,0.7999742916099737,0.8,0,382.0,880.0,0.0,878.0,1,0.3077657143607294,0.0
442,442,-0.6798753456782187,-0.7,1,418.0,944.0,1.0,298.0,1,0.3773593196840789,0.0
443,443,-0.5521294554824725,-0.6,1,484.0,858.0,1.0,318.0,1,0.4634959106398079,0.0
444,444,0.9132699568001712,0.9,0,348.0,730.0,0.0,42.0,1,0.5903055437048541,0.0
445,445,0.9105789153323436,0.9,0,411.0,894.0,0.0,95.0,1,0.42043736760819744,0.0
446,446,-0.6189966696985616,-0.6,1,268.0,946.0,0.0,-374.0,0,0.5970925972848697,0.0
447,447,0.8084896752353348,0.8,0,469.0,976.0,0.0,225.0,1,0.3231353863383288,0.0
448,448,0.20388873968205679,0.2,0,258.0,519.0,0.0,143.0,1,0.5273255198470119,0.0
449,449,-0.23834129110694735,-0.2,1,379.0,988.0,1.0,1943.0,1,0.39671130956496176,0.0
450,450,-0.9163530756125242,-0.9,1,478.0,622.0,1.0,1170.0,1,0.31793655444601227,0.0
451,451,-0.7425725291072258,-0.7,1,390.0,601.0,1.0,-791.0,1,0.5018960970952719,0.0
452,452,0.6347790259938935,0.6,0,342.0,861.0,0.0,-593.0,1,0.577064377659618,0.0
453,453,-0.5312578798727459,-0.5,1,387.0,663.0,1.0,250.0,1,0.4483238983888965,0.0
454,454,0.04158743129507436,0.0,0,439.0,615.0,0.0,2676.0,1,0.4715022082062167,0.0
455,455,-0.9339051359046897,-0.9,1,453.0,756.0,1.0,391.0,1,0.3820029598794179,0.0
456,456,0.3077174289741804,0.3,0,432.0,723.0,0.0,85.0,1,0.4997321778217909,0.0
457,457,0.9367109892467458,0.9,0,278.0,980.0,0.0,152.0,1,0.4503353957678893,0.0
458,458,0.5136204759383802,0.5,0,343.0,921.0,0.0,-444.0,1,0.5322928860543682,0.0
459,459,0.8856826630881331,0.9,0,313.0,650.0,0.0,257.0,1,0.34122279027154934,0.0
460,460,0.7459062502618548,0.7,0,312.0,632.0,0.0,316.0,1,0.40579299405725955,0.0
461,461,-0.1585541773158754,-0.2,1,441.0,653.0,0.0,-914.0,0,0.5734292985546515,0.0
462,462,-0.9377423014977813,-0.9,1,319.0,799.0,1.0,252.0,1,0.41071253552911563,0.0
463,463,-0.9418796508419396,-0.9,1,268.0,977.0,1.0,365.0,1,0.32125811767581897,0.0
464,464,0.6579651644841971,0.7,0,357.0,787.0,0.0,96.0,1,0.45145838750690204,0.0
465,465,-0.9184846988684627,-0.9,1,457.0,808.0,1.0,95.0,1,0.5962518825049983,0.0
466,466,0.00018831509417838177,0.0,0,310.0,520.0,1.0,4170.0,0,0.35531128051696315,0.0
467,467,0.6519308424271972,0.7,0,390.0,502.0,0.0,4108.0,1,0.3003753853403248,0.0
468,468,-0.031454897487737776,-0.0,1,475.0,554.0,0.0,3971.0,0,0.3703145141391236,0.0
469,469,-0.47789325337837285,-0.5,1,263.0,634.0,0.0,-567.0,0,0.48684666694388684,0.0
470,470,-0.8019372331104182,-0.8,1,380.0,708.0,1.0,-28.0,1,0.4610445111220808,0.0
471,471,-0.05692396092849328,-0.1,1,483.0,800.0,0.0,3717.0,0,0.343748455082246,0.0
472,472,0.5802326724066926,0.6,0,367.0,710.0,0.0,-87.0,1,0.48761430036240927,0.0
473,473,0.4591932389921123,0.5,0,398.0,716.0,0.0,-914.0,1,0.47778095519577757,0.0
474,474,0.9234985073959705,0.9,0,499.0,726.0,1.0,-805.0,0,0.5047454645294244,0.0
475,475,0.2011919906759858,0.2,0,464.0,641.0,1.0,-265.0,0,0.5680780521300994,0.0
476,476,0.5987668272399693,0.6,0,359.0,527.0,0.0,534.0,1,0.34815608756314204,0.0
477,477,0.3312027918360383,0.3,0,313.0,588.0,0.0,4099.0,1,0.3114087498921257,0.0
478,478,0.9208255692994936,0.9,0,327.0,687.0,0.0,286.0,1,0.4324003917694178,0.0
479,479,-0.10154572310589094,-0.1,1,382.0,992.0,0.0,-1114.0,0,0.5711768093516836,0.0
480,480,-0.35923964834821853,-0.4,1,384.0,958.0,0.0,-172.0,0,0.531223664247365,0.0
481,481,-0.15252138124048398,-0.2,1,419.0,624.0,0.0,-473.0,0,0.5793208017368752,0.0
482,482,-0.6334164105074618,-0.6,1,293.0,503.0,1.0,394.0,1,0.3451276439142876,0.0
483,483,-0.4491687680678822,-0.4,1,308.0,834.0,1.0,408.0,1,0.47798265408520124,0.0
484,484,0.0553860523639933,0.1,0,311.0,834.0,0.0,3855.0,1,0.348110441865209,0.0
485,485,0.6770067286056507,0.7,0,436.0,963.0,0.0,691.0,1,0.3484431674827224,0.0
486,486,0.9053431539872911,0.9,0,461.0,924.0,0.0,195.0,1,0.3789713287472309,0.0
487,487,-0.9260405791085464,-0.9,1,402.0,523.0,0.0,-575.0,0,0.548271011660964,0.0
488,488,0.7175370165972117,0.7,0,253.0,994.0,0.0,-327.0,1,0.4975121911044345,0.0
489,489,0.7309863551908713,0.7,0,447.0,567.0,1.0,-554.0,0,0.5323688440734233,0.0
490,490,-0.4727612220934043,-0.5,1,395.0,530.0,1.0,375.0,1,0.4738816819310149,0.0
491,491,0.7846390863935866,0.8,0,270.0,639.0,0.0,1461.0,1,0.32531768653481535,0.0
492,492,-0.4115162719607388,-0.4,1,339.0,679.0,1.0,3982.0,1,0.3006432460098698,0.0
493,493,0.8233716068643582,0.8,0,379.0,545.0,1.0,-524.0,0,0.417803175727876,0.0
494,494,-0.7045572850370041,-0.7,1,309.0,573.0,1.0,148.0,1,0.4860200057052593,0.0
495,495,0.5653831343109721,0.6,0,333.0,782.0,0.0,-185.0,1,0.45232611765486885,0.0
496,496,-0.9004719884470567,-0.9,1,449.0,626.0,1.0,155.0,1,0.4531926323785514,0.0
497,497,-0.05653437371264847,-0.1,1,404.0,959.0,0.0,3637.0,0,0.3465541673312552,0.0
498,498,-0.18035592731101846,-0.2,1,482.0,988.0,0.0,-820.0,0,0.5848341923844038,0.0
499,499,0.7224016031432201,0.7,0,435.0,778.0,0.0,2157.0,1,0.3053132553187128,0.0
500,500,0.9206251408309014,0.9,0,427.0,925.0,0.0,128.0,1,0.5294885679758947,0.0
501,501,0.5353098280764701,0.5,0,465.0,638.0,0.0,3897.0,1,0.30868731710303565,0.0
502,502,-0.7795578221397124,-0.8,1,496.0,588.0,1.0,-424.0,1,0.5838043419507175,0.0
503,503,-0.8238866119312922,-0.8,1,437.0,861.0,1.0,292.0,1,0.4275603619820557,0.0
504,504,-0.21598122297159517,-0.2,1,328.0,750.0,1.0,3922.0,1,0.31453791705405987,0.0
505,505,-0.100020291645327,-0.1,1,261.0,792.0,1.0,3947.0,1,0.3573572475574074,0.0
506,506,-0.6876141527350903,-0.7,1,465.0,781.0,1.0,-766.0,1,0.5492419226148679,0.0
507,507,0.36130888016956964,0.4,0,430.0,695.0,0.0,175.0,1,0.43985022289649356,0.0
508,508,0.5299975393010263,0.5,0,484.0,656.0,0.0,400.0,1,0.5118369982205617,0.0
509,509,-0.2323740962433829,-0.2,1,354.0,629.0,1.0,-93.0,1,0.557178213878435,0.0
510,510,0.21189058889451284,0.2,0,265.0,536.0,0.0,4199.0,1,0.3314089343798092,0.0
511,511,0.9709470514855283,1.0,0,415.0,555.0,0.0,-660.0,1,0.45222909906060554,0.0
512,512,-0.9329481090692775,-0.9,1,305.0,516.0,1.0,-281.0,1,0.5097688399503586,0.0
513,513,0.9179319385514264,0.9,0,347.0,937.0,0.0,236.0,1,0.5442816170452909,0.0
514,514,0.13058029513130087,0.1,0,470.0,951.0,1.0,-1081.0,0,0.5894443376235583,0.0
515,515,0.7091168619986941,0.7,0,428.0,787.0,0.0,365.0,1,0.3509526458321092,0.0
516,516,0.3255193219332715,0.3,0,489.0,949.0,0.0,-998.0,1,0.5456860491212988,0.0
517,517,0.5692655725752105,0.6,0,263.0,534.0,0.0,1293.0,1,0.35702854745767393,0.0
518,518,-0.35394707345220544,-0.4,1,352.0,899.0,1.0,-51.0,1,0.46287962585762565,0.0
519,519,0.19434598720695107,0.2,0,253.0,980.0,0.0,217.0,1,0.48323946561048575,0.0
520,520,0.28912000291250606,0.3,0,443.0,592.0,0.0,415.0,1,0.5852254410175133,0.0
521,521,0.0024055035035326355,0.0,0,270.0,617.0,1.0,463.0,0,0.47927838535780043,0.0
522,522,-0.15382066728803867,-0.2,1,310.0,900.0,0.0,3790.0,0,0.3215314912803112,0.0
523,523,0.836136159228974,0.8,0,292.0,624.0,1.0,-676.0,0,0.5689267346182886,0.0
524,524,0.026675159814316896,0.0,0,310.0,959.0,1.0,-539.0,0,0.5259156794435368,0.0
525,525,0.7431441738980382,0.7,0,269.0,704.0,0.0,407.0,1,0.40536911681949767,0.0
526,526,0.867491433973848,0.9,0,348.0,795.0,0.0,447.0,1,0.317303358283809,0.0
527,527,-0.3996915839358992,-0.4,1,435.0,698.0,0.0,-823.0,0,0.574340518624948,0.0
528,528,0.823275491487055,0.8,0,370.0,899.0,0.0,-1039.0,1,0.5832155518462856,0.0
529,529,0.8168507332792014,0.8,0,326.0,825.0,1.0,-981.0,0,0.5759830945244007,0.0
530,530,-0.12351901684272515,-0.1,1,284.0,774.0,0.0,-748.0,0,0.44367930957579604,0.0
531,531,0.9844832122573592,1.0,0,476.0,591.0,0.0,213.0,1,0.45973528915387096,0.0
532,532,-0.11352035142635453,-0.1,1,318.0,998.0,1.0,764.0,1,0.4137700518350086,0.0
533,533,0.564684976438695,0.6,0,351.0,518.0,0.0,141.0,1,0.5383289236705151,0.0
534,534,-0.9597362202741295,-1.0,1,292.0,522.0,1.0,226.0,1,0.33024366282632334,0.0
535,535,-0.07040501894848017,-0.1,1,406.0,875.0,1.0,3089.0,1,0.39791805775748723,0.0
536,536,0.10231273160431442,0.1,0,449.0,928.0,1.0,-967.0,0,0.5176202129718823,0.0
537,537,0.6072816754523633,0.6,0,448.0,660.0,0.0,202.0,1,0.494127823828876,0.0
538,538,0.6965736898259063,0.7,0,394.0,942.0,0.0,-1056.0,1,0.5569402118688968,0.0
539,539,-0.020795689999476563,-0.0,1,464.0,586.0,1.0,3950.0,1,0.3297427491936413,0.0
540,540,-0.9447652024656095,-0.9,1,415.0,612.0,0.0,-827.0,0,0.5572186801213093,0.0
541,541,-0.9896565051113462,-1.0,1,465.0,619.0,1.0,296.0,1,0.311679303013016,0.0
542,542,-0.16228451631708163,-0.2,1,462.0,562.0,1.0,536.0,1,0.44744961717352305,0.0
543,543,0.049317179878115125,0.0,0,489.0,632.0,0.0,3879.0,1,0.4756398433766269,0.0
544,544,-0.7196603772212551,-0.7,1,344.0,919.0,1.0,27.0,1,0.5604170355490649,0.0
545,545,0.15840123997333966,0.2,0,316.0,667.0,0.0,1407.0,1,0.40281223669526584,0.0
546,546,-0.525941850487412,-0.5,1,328.0,688.0,1.0,894.0,1,0.39033858134566873,0.0
547,547,0.9000766381636185,0.9,0,273.0,733.0,0.0,144.0,1,0.3990192374040478,0.0
548,548,0.006954961734733978,0.0,0,318.0,706.0,1.0,3976.0,0,0.3585665246786884,0.0
549,549,-0.6261984290145346,-0.6,1,273.0,819.0,1.0,118.0,1,0.41717114107646414,0.0
550,550,-0.9914971407327604,-1.0,1,321.0,718.0,1.0,-559.0,1,0.5189127138272811,0.0
551,551,-0.47651311983124245,-0.5,1,430.0,648.0,1.0,-508.0,1,0.5886645908006518,0.0
552,552,0.5705418577892378,0.6,0,487.0,859.0,0.0,714.0,1,0.33453962022606354,0.0
553,553,0.7554667478200154,0.8,0,443.0,662.0,0.0,255.0,1,0.48245694188993427,0.0
554,554,-0.5294836625692587,-0.5,1,482.0,530.0,1.0,-822.0,1,0.4581442238152539,0.0
555,555,0.7543486025875736,0.8,0,455.0,868.0,0.0,407.0,1,0.3638215891911998,0.0
556,556,-0.025542464062918935,-0.0,1,376.0,996.0,1.0,3628.0,1,0.3408004355050374,0.0
557,557,0.6806232504592464,0.7,0,450.0,573.0,0.0,457.0,1,0.3670471741783006,0.0
558,558,0.7725156404071905,0.8,0,479.0,566.0,0.0,825.0,1,0.3295568774655873,0.0
559,559,-0.29180366735609775,-0.3,1,424.0,508.0,1.0,3448.0,1,0.37310560196833265,0.0
560,560,-0.6793673187539917,-0.7,1,489.0,821.0,1.0,250.0,1,0.4216912374625462,0.0
561,561,-0.4771318202800163,-0.5,1,424.0,767.0,1.0,-441.0,1,0.5549401659971832,0.0
562,562,0.28680822283266183,0.3,0,455.0,753.0,0.0,2232.0,1,0.3664396174508787,0.0
563,563,-0.8285459898623369,-0.8,1,313.0,903.0,0.0,-986.0,0,0.513711852532454,0.0
564,564,0.5584687816490521,0.6,0,286.0,998.0,1.0,-324.0,0,0.5310711416656916,0.0
565,565,0.8791943860293088,0.9,0,338.0,993.0,0.0,269.0,1,0.42391794282604256,0.0
566,566,-0.22997138515814064,-0.2,1,311.0,963.0,1.0,76.0,1,0.42957260081610793,0.0
567,567,-0.3909924000008633,-0.4,1,493.0,751.0,1.0,156.0,1,0.45187329399486575,0.0
568,568,-0.27061718030103377,-0.3,1,438.0,567.0,1.0,515.0,1,0.45670694378397236,0.0
569,569,0.6839385499215251,0.7,0,425.0,628.0,1.0,-563.0,0,0.5389300368919652,0.0
570,570,-0.9185570227665365,-0.9,1,317.0,547.0,1.0,366.0,1,0.31264551688587955,0.0
571,571,0.2535375122385024,0.3,0,262.0,573.0,0.0,915.0,1,0.4727192620644889,0.0
572,572,0.001072970412276053,0.0,0,440.0,752.0,0.0,-812.0,1,0.559373478890336,0.0
573,573,0.16716444416640686,0.2,0,362.0,540.0,0.0,1268.0,1,0.37490994038565184,0.0
574,574,0.7289611247554073,0.7,0,293.0,841.0,0.0,-594.0,1,0.564693490796266,0.0
575,575,0.10399585067665629,0.1,0,257.0,846.0,1.0,-963.0,0,0.5359558423301417,0.0
576,576,-0.37342627935898,-0.4,1,354.0,772.0,0.0,-956.0,0,0.5255058729782607,0.0
577,577,0.6289228704840037,0.6,0,280.0,718.0,0.0,582.0,1,0.3460138333423021,0.0
578,578,-0.5809248032121359,-0.6,1,434.0,837.0,1.0,169.0,1,0.45375451142766937,0.0
579,579,0.20808223850643626,0.2,0,308.0,507.0,0.0,-495.0,1,0.5938435471126422,0.0
580,580,0.35320716557530973,0.4,0,256.0,960.0,0.0,454.0,1,0.3978515792480969,0.0
581,581,-0.9791889019847224,-1.0,1,260.0,656.0,1.0,474.0,1,0.3013071831577559,0.0
582,582,-0.42293926707639584,-0.4,1,435.0,605.0,1.0,2470.0,1,0.3470333050081961,0.0
583,583,0.4851388728381627,0.5,0,425.0,916.0,0.0,1409.0,1,0.3235540227710321,0.0
584,584,-0.5512781765762647,-0.6,1,338.0,935.0,1.0,107.0,1,0.5103145572771346,0.0
585,585,-0.031082026222525316,-0.0,1,307.0,827.0,1.0,3866.0,1,0.3690136234072403,0.0
586,586,-0.8012506243270177,-0.8,1,262.0,705.0,1.0,153.0,1,0.5681302312238974,0.0
587,587,-0.9088904110529041,-0.9,1,330.0,709.0,1.0,71.0,1,0.5089613629742007,0.0
588,588,-0.8035953061420529,-0.8,1,477.0,750.0,1.0,143.0,1,0.44971817585907814,0.0
589,589,-0.25862898132137824,-0.3,1,347.0,978.0,0.0,-165.0,0,0.5911787239753412,0.0
590,590,0.6851526125545317,0.7,0,289.0,653.0,1.0,-392.0,0,0.5240532659280641,0.0
591,591,0.8283670529317784,0.8,0,257.0,946.0,0.0,227.0,1,0.3805258996729034,0.0
592,592,0.5583005831598336,0.6,0,479.0,841.0,0.0,380.0,1,0.3415205605886456,0.0
593,593,-0.7464102676155746,-0.7,1,457.0,792.0,1.0,171.0,1,0.4354569159187116,0.0
594,594,-0.5703333004917888,-0.6,1,347.0,976.0,1.0,217.0,1,0.4208990015694757,0.0
595,595,0.8662761422955152,0.9,0,346.0,779.0,0.0,675.0,1,0.3460740599825711,0.0
596,596,0.6585191149359471,0.7,0,410.0,931.0,0.0,359.0,1,0.489541848872904,0.0
597,597,0.8624084947756161,0.9,0,353.0,888.0,0.0,209.0,1,0.3828405680711449,0.0
598,598,0.35229321716371187,0.4,0,300.0,664.0,0.0,156.0,1,0.45701903139568145,0.0
599,599,0.5601433649128089,0.6,0,370.0,585.0,0.0,1075.0,1,0.3449315201007801,0.0
600,600,0.2724413174675022,0.3,0,436.0,528.0,0.0,406.0,1,0.44504187120802396,0.0
601,601,-0.3640152249397941,-0.4,1,353.0,875.0,1.0,1512.0,1,0.3950985424477429,0.0
602,602,0.6717739064258739,0.7,0,407.0,976.0,1.0,-263.0,0,0.48359923009834616,0.0
603,603,-0.5430088328988332,-0.5,1,399.0,880.0,1.0,2551.0,1,0.3473687740656699,0.0
604,604,-0.004015350301768139,-0.0,1,277.0,929.0,1.0,-1036.0,1,0.5539058761384572,0.0
605,605,-0.7994437892596478,-0.8,1,402.0,886.0,1.0,162.0,1,0.462712446093527,0.0
606,606,0.5465146460434147,0.5,0,349.0,741.0,0.0,3910.0,1,0.31813537912800177,0.0
607,607,0.6076728578032122,0.6,0,267.0,731.0,0.0,82.0,1,0.3997118472516177,0.0
608,608,-0.32363693774309654,-0.3,1,447.0,761.0,1.0,1322.0,1,0.3555403129278731,0.0
609,609,-0.16479551793751024,-0.2,1,499.0,984.0,1.0,787.0,1,0.46668885609735933,0.0
610,610,0.46070200967383035,0.5,0,360.0,587.0,0.0,743.0,1,0.33772449385935,0.0
611,611,-0.9946894438583234,-1.0,1,493.0,967.0,1.0,190.0,1,0.37171181739590725,0.0
612,612,0.255080380802744,0.3,0,292.0,946.0,1.0,-1058.0,0,0.5794165984221031,0.0
613,613,0.015592352530559017,0.0,0,318.0,948.0,0.0,3734.0,1,0.3429733732452573,0.0
614,614,-0.7095706509439883,-0.7,1,322.0,528.0,1.0,640.0,1,0.3668624236723586,0.0
615,615,0.1356012243642779,0.1,0,355.0,801.0,0.0,-956.0,1,0.5100784966518314,0.0
616,616,0.5873045094469826,0.6,0,395.0,754.0,0.0,141.0,1,0.4687406320617491,0.0
617,617,0.7423626047274263,0.7,0,258.0,538.0,0.0,484.0,1,0.32562644872409646,0.0
618,618,-0.26681469921719025,-0.3,1,255.0,901.0,1.0,1094.0,1,0.43727182388113484,0.0
619,619,0.05348861446391173,0.1,0,431.0,693.0,0.0,1756.0,1,0.46036442508719305,0.0
620,620,0.630778750905205,0.6,0,291.0,912.0,1.0,-473.0,0,0.41507763711339163,0.0
621,621,0.32465528197270466,0.3,0,307.0,540.0,0.0,1303.0,1,0.5405274592334304,0.0
622,622,-0.8695277680320777,-0.9,1,304.0,669.0,1.0,297.0,1,0.35957483494005327,0.0
623,623,-0.9824715945748026,-1.0,1,413.0,538.0,1.0,509.0,1,0.3122133187242392,0.0
624,624,0.5735600722064551,0.6,0,356.0,795.0,0.0,619.0,1,0.3232580862440862,0.0
625,625,-0.4284901466168758,-0.4,1,345.0,694.0,1.0,3961.0,1,0.31704033369116774,0.0
626,626,-0.8835607157390164,-0.9,1,383.0,998.0,1.0,249.0,1,0.4328194221618715,0.0
627,627,-0.4009034145560144,-0.4,1,490.0,865.0,0.0,-685.0,0,0.47722011941438164,0.0
628,628,0.6608978739649947,0.7,0,447.0,839.0,0.0,-566.0,1,0.596111069011517,0.0
629,629,0.5875594174355387,0.6,0,423.0,774.0,0.0,503.0,1,0.41086391325087607,0.0
630,630,-0.09502675325139265,-0.1,1,496.0,623.0,0.0,-349.0,0,0.5812710561799754,0.0
631,631,-0.3823763360518899,-0.4,1,282.0,767.0,1.0,3951.0,1,0.35064351877049427,0.0
632,632,0.40261147673613884,0.4,0,405.0,945.0,0.0,3650.0,1,0.319982924659897,0.0
633,633,0.4694449736973363,0.5,0,399.0,736.0,0.0,485.0,1,0.3809996580873021,0.0
634,634,0.2843856225629604,0.3,0,479.0,617.0,1.0,3904.0,0,0.37480497311999744,0.0
635,635,-0.39497593197163017,-0.4,1,327.0,505.0,1.0,-632.0,1,0.5958929936486417,0.0
636,636,-0.9667241162857958,-1.0,1,437.0,983.0,0.0,-200.0,0,0.5636807883384483,0.0
637,637,0.7168032811050395,0.7,0,322.0,917.0,0.0,111.0,1,0.48788296567571887,0.0
638,638,0.6441295591440896,0.6,0,306.0,759.0,0.0,775.0,1,0.38542094949578265,0.0
639,639,0.33042403433380896,0.3,0,461.0,712.0,0.0,-793.0,1,0.5498631213668804,0.0
640,640,0.8712055724389856,0.9,0,447.0,511.0,0.0,382.0,1,0.31890831706093836,0.0
641,641,0.1505015103565721,0.2,0,465.0,979.0,0.0,3556.0,1,0.32190777448337266,0.0
642,642,-0.17382112069397504,-0.2,1,442.0,604.0,1.0,1954.0,1,0.46056928003782793,0.0
643,643,0.4966765655032086,0.5,0,264.0,894.0,0.0,182.0,1,0.40119610745546325,0.0
644,644,-0.8467239577062768,-0.8,1,296.0,901.0,1.0,253.0,1,0.3530674044093862,0.0
645,645,-0.14162082336719672,-0.1,1,418.0,580.0,0.0,242.0,0,0.5090723100546698,0.0
646,646,0.2852825239031658,0.3,0,354.0,678.0,0.0,-282.0,1,0.4256029971814015,0.0
647,647,-0.6369198357185393,-0.6,1,404.0,881.0,1.0,-125.0,1,0.5762727519894,0.0
648,648,-0.5126022412714535,-0.5,1,295.0,620.0,1.0,685.0,1,0.3505558269488132,0.0
649,649,0.7952097083692427,0.8,0,459.0,607.0,0.0,324.0,1,0.43406910551651656,0.0
650,650,-0.4104518283287386,-0.4,1,417.0,644.0,1.0,1479.0,1,0.3697047454057382,0.0
651,651,-0.464690026484039,-0.5,1,348.0,853.0,0.0,-951.0,0,0.5355626918670413,0.0
652,652,-0.4946200344997369,-0.5,1,446.0,679.0,0.0,-435.0,0,0.5534099579779069,0.0
653,653,0.6424927562239682,0.6,0,409.0,970.0,0.0,-379.0,1,0.40652452677647166,0.0
654,654,-0.420880912462132,-0.4,1,314.0,839.0,1.0,-233.0,1,0.4640603025835456,0.0
655,655,0.2398195095520157,0.2,0,314.0,563.0,0.0,653.0,1,0.39485482373055547,0.0
656,656,0.3998279877985971,0.4,0,480.0,668.0,0.0,-918.0,1,0.5901105439958618,0.0
657,657,0.778918131305069,0.8,0,294.0,511.0,1.0,-445.0,0,0.5267801260270462,0.0
658,658,-0.6977457667536018,-0.7,1,274.0,568.0,1.0,4158.0,1,0.32298730559938554,0.0
659,659,-0.9918613780930168,-1.0,1,448.0,863.0,1.0,179.0,1,0.42174909510519987,0.0
660,660,-0.43292702881654166,-0.4,1,389.0,779.0,1.0,222.0,1,0.5870042943530129,0.0
661,661,0.32326239009505553,0.3,0,344.0,920.0,0.0,-524.0,1,0.5750035728024951,0.0
662,662,0.23235282527918089,0.2,0,391.0,659.0,0.0,1040.0,1,0.4343470596881158,0.0
663,663,-0.27985107441579316,-0.3,1,450.0,561.0,1.0,449.0,1,0.4201227235072793,0.0
664,664,-0.1411195207898115,-0.1,1,328.0,842.0,1.0,-740.0,1,0.5111731747416519,0.0
665,665,-0.08746124798906574,-0.1,1,449.0,752.0,0.0,-891.0,0,0.5859646126144787,0.0
666,666,0.20700112435429152,0.2,0,271.0,675.0,0.0,4054.0,1,0.31577965283225945,0.0
667,667,0.02528416047917803,0.0,0,287.0,724.0,0.0,3069.0,1,0.4899262042642585,0.0
668,668,0.8057867728350627,0.8,0,363.0,692.0,0.0,105.0,1,0.4520406243832781,0.0
669,669,-0.1612664650140163,-0.2,1,410.0,742.0,1.0,3848.0,1,0.37955956561229365,0.0
670,670,0.47015182361657004,0.5,0,345.0,691.0,0.0,324.0,1,0.41290729801598935,0.0
671,671,-0.7117183409231393,-0.7,1,257.0,760.0,1.0,-327.0,1,0.4855598075304397,0.0
672,672,0.36309603162209014,0.4,0,351.0,929.0,1.0,-140.0,0,0.4488364802863851,0.0
673,673,-0.08786877468694976,-0.1,1,301.0,658.0,1.0,431.0,1,0.5738518786263803,0.0
674,674,0.3854848897423362,0.4,0,402.0,990.0,0.0,808.0,1,0.3860264117293211,0.0
675,675,-0.8345517542794871,-0.8,1,425.0,758.0,1.0,207.0,1,0.46610920059366096,0.0
676,676,0.14199064668066197,0.1,0,445.0,549.0,0.0,726.0,1,0.4331685224801206,0.0
677,677,0.15212844603092068,0.2,0,358.0,865.0,1.0,3777.0,0,0.40127479993202675,0.0
678,678,-0.5162098470925742,-0.5,1,292.0,547.0,1.0,1141.0,1,0.5384715021451326,0.0
679,679,-0.6266545465192865,-0.6,1,282.0,640.0,0.0,-112.0,0,0.47522029537847144,0.0
680,680,-0.15857829004825086,-0.2,1,492.0,885.0,0.0,-127.0,0,0.49971762439196205,0.0
681,681,0.03702428715030015,0.0,0,290.0,785.0,1.0,1265.0,0,0.44703149660493163,0.0
682,682,0.6721522945667131,0.7,0,310.0,969.0,0.0,141.0,1,0.39560622437733106,0.0
683,683,-0.09252489547027132,-0.1,1,483.0,968.0,1.0,-1051.0,1,0.48020492565383727,0.0
684,684,0.26829456127418005,0.3,0,320.0,880.0,0.0,1590.0,1,0.4890872950642131,0.0
685,685,0.2785824944200861,0.3,0,485.0,518.0,0.0,647.0,1,0.457024910728555,0.0
686,686,-0.3178756562451277,-0.3,1,375.0,574.0,1.0,531.0,1,0.4210118702796682,0.0
687,687,-0.15371917213579955,-0.2,1,271.0,509.0,1.0,4220.0,1,0.3282884403846558,0.0
688,688,-0.6070296969419073,-0.6,1,467.0,746.0,1.0,567.0,1,0.4115852783111184,0.0
689,689,-0.7049286632972018,-0.7,1,327.0,823.0,1.0,2070.0,1,0.3043803861046484,0.0
690,690,-0.5520119764919216,-0.6,1,378.0,682.0,1.0,220.0,1,0.46138612609341456,0.0
691,691,0.5234756101778875,0.5,0,440.0,943.0,0.0,667.0,1,0.43454142039077004,0.0
692,692,0.09540781336709858,0.1,0,268.0,924.0,1.0,-862.0,0,0.5559622073177015,0.0
693,693,-0.5241773761661144,-0.5,1,308.0,635.0,1.0,-113.0,1,0.5207091339641093,0.0
694,694,0.7956380799066263,0.8,0,332.0,614.0,0.0,-266.0,1,0.5813924967105507,0.0
695,695,0.1866393839245042,0.2,0,302.0,792.0,1.0,-1004.0,0,0.5531014690752643,0.0
696,696,-0.6100131217592191,-0.6,1,347.0,661.0,1.0,262.0,1,0.4068725503010503,0.0
697,697,-0.12501164275212728,-0.1,1,279.0,662.0,0.0,4059.0,0,0.32009674980568475,0.0
698,698,0.07369588999575205,0.1,0,499.0,849.0,0.0,3272.0,1,0.4524563543195431,0.0
699,699,0.06607313192323927,0.1,0,311.0,503.0,1.0,626.0,0,0.42841542042512315,0.0
700,700,-0.9173573932921597,-0.9,1,279.0,598.0,1.0,103.0,1,0.40558409251942074,0.0
701,701,-0.02414914416843983,-0.0,1,457.0,721.0,1.0,3822.0,1,0.32914534505660814,0.0
702,702,-0.48921084431337114,-0.5,1,347.0,800.0,1.0,303.0,1,0.4660917285504469,0.0
703,703,0.40578606051652844,0.4,0,314.0,621.0,0.0,2835.0,1,0.3595581744329067,0.0
704,704,-0.339728143722823,-0.3,1,436.0,729.0,1.0,635.0,1,0.41331015356212275,0.0
705,705,0.05966856979526547,0.1,0,279.0,544.0,1.0,327.0,0,0.4775708302375524,0.0
706,706,0.4495004980670183,0.4,0,459.0,603.0,1.0,-852.0,0,0.48993799590178577,0.0
707,707,0.7449530659966215,0.7,0,390.0,826.0,0.0,304.0,1,0.40479564719513367,0.0
708,708,-0.987561235145793,-1.0,1,280.0,737.0,0.0,-257.0,0,0.5333913474217898,0.0
709,709,0.5262494031831118,0.5,0,373.0,752.0,0.0,3875.0,1,0.3010793641263245,0.0
710,710,0.16552531571365958,0.2,0,336.0,941.0,1.0,3723.0,0,0.3426847307013391,0.0
711,711,-0.6137436439643564,-0.6,1,336.0,585.0,1.0,79.0,1,0.487968694384371,0.0
712,712,0.9619922069570364,1.0,0,492.0,606.0,0.0,732.0,1,0.30470560685523185,0.0
713,713,0.8697400501165402,0.9,0,360.0,630.0,0.0,50.0,1,0.47581010810724145,0.0
714,714,0.758506482357453,0.8,0,378.0,947.0,0.0,315.0,1,0.5044083349523595,0.0
715,715,0.30489511786546486,0.3,0,383.0,812.0,0.0,-225.0,1,0.4492620626694272,0.0
716,716,-0.9001152620487844,-0.9,1,424.0,635.0,1.0,1531.0,1,0.32812954495496266,0.0
717,717,0.01564746708152942,0.0,0,310.0,696.0,0.0,3994.0,1,0.33167892187983977,0.0
718,718,0.5000216863924407,0.5,0,265.0,898.0,0.0,337.0,1,0.4337744851577998,0.0
719,719,0.33818439043571513,0.3,0,402.0,930.0,1.0,-882.0,0,0.4549949867581122,0.0
720,720,-0.7108397090108947,-0.7,1,426.0,881.0,1.0,-947.0,1,0.5910690076901924,0.0
721,721,-0.13296964054849436,-0.1,1,433.0,875.0,0.0,-358.0,0,0.5195290126642358,0.0
722,722,0.7849272231914322,0.8,0,403.0,819.0,1.0,-672.0,0,0.5238645011504082,0.0
723,723,-0.06910977282832631,-0.1,1,410.0,751.0,1.0,489.0,1,0.47705765926439275,0.0
724,724,-0.4982212359946976,-0.5,1,488.0,729.0,1.0,433.0,1,0.3191182976775127,0.0
725,725,0.5625111963061669,0.6,0,403.0,639.0,0.0,-52.0,1,0.5204342416486345,0.0
726,726,0.6251777946010342,0.6,0,269.0,893.0,0.0,218.0,1,0.44073539203992956,0.0
727,727,0.10896846712318187,0.1,0,280.0,819.0,1.0,3901.0,0,0.37732506233961133,0.0
728,728,-0.23794909308257006,-0.2,1,420.0,827.0,1.0,3753.0,1,0.37968079608069627,0.0
729,729,0.1538791619764619,0.2,0,458.0,877.0,1.0,-815.0,0,0.5546160742935726,0.0
730,730,0.43142415255371325,0.4,0,314.0,833.0,0.0,1243.0,1,0.3898175992347965,0.0
731,731,0.47402475844854264,0.5,0,462.0,718.0,0.0,2260.0,1,0.3858054986300541,0.0
732,732,0.17372434219382393,0.2,0,415.0,820.0,0.0,3765.0,1,0.3216382770894943,0.0
733,733,0.9714906190078128,1.0,0,284.0,843.0,0.0,143.0,1,0.44208516129141495,0.0
734,734,-0.8525514986416591,-0.9,1,447.0,612.0,1.0,251.0,1,0.465957966939984,0.0
735,735,-0.6041487406833075,-0.6,1,262.0,529.0,1.0,4209.0,1,0.31084821812068875,0.0
736,736,0.83378506167993,0.8,0,415.0,675.0,1.0,-180.0,0,0.4578959251115057,0.0
737,737,0.19002964340510675,0.2,0,457.0,971.0,1.0,-1158.0,0,0.5859343992228017,0.0
738,738,0.8529685317399502,0.9,0,496.0,999.0,1.0,-345.0,0,0.4890242862262481,0.0
739,739,0.8805178242696448,0.9,0,324.0,550.0,1.0,-504.0,0,0.49205696523724596,0.0
740,740,-0.6080415022213197,-0.6,1,471.0,939.0,1.0,2200.0,1,0.3194248305151105,0.0
741,741,-0.11669052209127839,-0.1,1,403.0,657.0,1.0,-290.0,1,0.49929198113275036,0.0
742,742,-0.01261612456026584,-0.0,1,419.0,999.0,0.0,3582.0,0,0.45391425722213175,0.0
743,743,0.6141009171383625,0.6,0,437.0,728.0,0.0,165.0,1,0.523731703620433,0.0
744,744,-0.6392547076916526,-0.6,1,471.0,980.0,1.0,1709.0,1,0.3214136374110683,0.0
745,745,0.4642192102647167,0.5,0,473.0,724.0,0.0,73.0,1,0.5067409939390067,0.0
746,746,0.13436254900332711,0.1,0,346.0,973.0,0.0,-689.0,1,0.5208124934037389,0.0
747,747,-0.2397446634951359,-0.2,1,304.0,586.0,1.0,760.0,1,0.432746214013108,0.0
748,748,-0.0392185775971976,-0.0,1,417.0,808.0,1.0,3775.0,1,0.34077159117181605,0.0
749,749,0.6956575498638282,0.7,0,434.0,831.0,0.0,-715.0,1,0.5189298918983076,0.0
750,750,-0.315220576102339,-0.3,1,284.0,808.0,1.0,3908.0,1,0.3114297318831003,0.0
751,751,0.4489813649186185,0.4,0,336.0,655.0,0.0,3109.0,1,0.3515066618774025,0.0
752,752,0.689895324638645,0.7,0,486.0,777.0,0.0,187.0,1,0.42838643848758784,0.0
753,753,-0.13404795378665613,-0.1,1,329.0,854.0,0.0,-883.0,0,0.5078385955192035,0.0
754,754,0.5889070259694809,0.6,0,320.0,667.0,0.0,2373.0,1,0.31283207838049415,0.0
755,755,0.7157358814439609,0.7,0,304.0,748.0,0.0,198.0,1,0.598387977640294,0.0
756,756,0.8795861426434308,0.9,0,362.0,769.0,0.0,149.0,1,0.5106938750837576,0.0
757,757,-0.5168853439107646,-0.5,1,472.0,767.0,1.0,71.0,1,0.5432875361265299,0.0
758,758,-0.7621451744032957,-0.8,1,263.0,882.0,1.0,2605.0,1,0.3319381666818345,0.0
759,759,-0.2739987635634127,-0.3,1,404.0,691.0,1.0,3185.0,1,0.3607475606748771,0.0
760,760,-0.5631272768098907,-0.6,1,300.0,749.0,1.0,121.0,1,0.48462334201994817,0.0
761,761,0.7333788508065293,0.7,0,378.0,940.0,0.0,462.0,1,0.3600086554928459,0.0
762,762,-0.25928267525923676,-0.3,1,292.0,702.0,1.0,4006.0,1,0.3446782619199436,0.0
763,763,-0.40465724723364627,-0.4,1,269.0,705.0,1.0,1856.0,1,0.37598305992496983,0.0
764,764,0.1968492448556134,0.2,0,317.0,562.0,0.0,-119.0,1,0.5772198870170111,0.0
765,765,0.22445282574621528,0.2,0,306.0,782.0,0.0,-528.0,1,0.5148628742435017,0.0
766,766,0.2681879447667175,0.3,0,469.0,844.0,0.0,167.0,1,0.4512129482834708,0.0
767,767,-0.9535343435865045,-1.0,1,381.0,652.0,1.0,97.0,1,0.40485307663395553,0.0
768,768,0.0873183642631683,0.1,0,312.0,979.0,0.0,3709.0,1,0.4168821782822849,0.0
769,769,-0.5185591316509286,-0.5,1,344.0,781.0,1.0,375.0,1,0.5740344886864913,0.0
770,770,0.9564815774449391,1.0,0,420.0,800.0,0.0,840.0,1,0.34579225182645706,0.0
771,771,0.65565087783878,0.7,0,434.0,641.0,0.0,1295.0,1,0.33247352103961136,0.0
772,772,0.4089216481444675,0.4,0,418.0,556.0,0.0,566.0,1,0.5784131716096729,0.0
773,773,-0.14947039090562786,-0.1,1,411.0,955.0,0.0,-1156.0,0,0.4279406768431093,0.0
774,774,-0.3474946528415499,-0.3,1,448.0,872.0,1.0,620.0,1,0.49516478718630214,0.0
775,775,0.33374190767182266,0.3,0,381.0,528.0,0.0,451.0,1,0.4966543973553171,0.0
776,776,-0.37476760251965424,-0.4,1,360.0,768.0,1.0,132.0,1,0.4196251065772175,0.0
777,777,0.2978720577322065,0.3,0,492.0,947.0,0.0,481.0,1,0.44342954265029766,0.0
778,778,-0.5852324196428398,-0.6,1,442.0,946.0,1.0,3612.0,1,0.3224168396748159,0.0
779,779,-0.43008255290262953,-0.4,1,382.0,961.0,1.0,2977.0,1,0.3272727057391438,0.0
780,780,0.452190569951741,0.5,0,475.0,738.0,1.0,-153.0,0,0.5800287415855135,0.0
781,781,-0.0027517208058598364,-0.0,1,419.0,806.0,1.0,3775.0,1,0.32500857332014876,0.0
782,782,0.11360592918884227,0.1,0,466.0,992.0,0.0,-1308.0,1,0.5061985918722182,0.0
783,783,0.7855420994002609,0.8,0,272.0,626.0,0.0,-398.0,1,0.477637620972033,0.0
784,784,-0.46180975313539174,-0.5,1,292.0,647.0,0.0,-469.0,0,0.5900984010301902,0.0
785,785,0.04855245398154562,0.0,0,447.0,578.0,1.0,-515.0,0,0.5073640883703765,0.0
786,786,-0.7949494029579163,-0.8,1,351.0,689.0,1.0,170.0,1,0.4899002605790669,0.0
787,787,0.5088116005591676,0.5,0,456.0,658.0,0.0,-144.0,1,0.49064145038423124,0.0
788,788,-0.01026622634699148,-0.0,1,448.0,869.0,1.0,3683.0,1,0.4010364577746348,0.0
789,789,-0.311388700511392,-0.3,1,255.0,742.0,1.0,-297.0,1,0.541159564156227,0.0
790,790,-0.4214675006732327,-0.4,1,321.0,656.0,0.0,-727.0,0,0.4706077381353718,0.0
791,791,-0.39774889423614224,-0.4,1,403.0,583.0,1.0,444.0,1,0.42568997045434176,0.0
792,792,0.013384370766464926,0.0,0,345.0,514.0,1.0,-549.0,0,0.5106977932419177,0.0
793,793,-0.013148632361937862,-0.0,1,448.0,537.0,1.0,-705.0,1,0.5852341341417446,0.0
794,794,-0.055016588658856946,-0.1,1,469.0,915.0,1.0,-424.0,1,0.532946007547266,0.0
795,795,0.1295693146692234,0.1,0,445.0,945.0,0.0,730.0,1,0.4541075810418712,0.0
796,796,-0.9505318141489063,-1.0,1,342.0,916.0,1.0,372.0,1,0.31564138482394394,0.0
797,797,-0.8867684053785672,-0.9,1,303.0,987.0,0.0,-1010.0,0,0.5661050295488008,0.0
798,798,0.38934310506393177,0.4,0,269.0,598.0,0.0,253.0,1,0.41061904734095883,0.0
799,799,-0.2545693910043896,-0.3,1,455.0,911.0,1.0,3634.0,1,0.32192286351725014,0.0
800,800,0.5562937087150144,0.6,0,285.0,728.0,0.0,3987.0,1,0.3004956968531224,0.0
801,801,0.09911744641736742,0.1,0,438.0,505.0,1.0,4057.0,0,0.3044268502775284,0.0
802,802,-0.8657332882192896,-0.9,1,474.0,898.0,0.0,-372.0,0,0.5774304667184672,0.0
803,803,0.0021431166985390604,0.0,0,436.0,627.0,1.0,3937.0,0,0.3633854448549704,0.0
804,804,0.5386477056905097,0.5,0,298.0,716.0,0.0,726.0,1,0.41502594563948064,0.0
805,805,0.4842309365737505,0.5,0,420.0,637.0,0.0,-17.0,1,0.5725881920826248,0.0
806,806,0.6858882374068103,0.7,0,334.0,676.0,0.0,-530.0,1,0.4906844215533036,0.0
807,807,0.35116758443920104,0.4,0,451.0,926.0,0.0,-1107.0,1,0.48323212300891805,0.0
808,808,0.326391687009036,0.3,0,498.0,937.0,1.0,-1135.0,0,0.49790989685402665,0.0
809,809,0.12956583944493105,0.1,0,261.0,967.0,0.0,3772.0,1,0.3778308199781738,0.0
810,810,-0.5381962087817385,-0.5,1,406.0,995.0,1.0,289.0,1,0.40755447035894893,0.0
811,811,-0.7177938062907254,-0.7,1,364.0,972.0,1.0,184.0,1,0.5873744410288169,0.0
812,812,-0.9112558243795772,-0.9,1,408.0,972.0,1.0,610.0,1,0.30523540940471633,0.0
813,813,-0.26624913005651374,-0.3,1,289.0,989.0,1.0,372.0,1,0.47950476713279244,0.0
814,814,0.8575542817250277,0.9,0,414.0,968.0,0.0,118.0,1,0.4593222260748957,0.0
815,815,-0.62714812577086,-0.6,1,452.0,574.0,1.0,-666.0,1,0.4734752804463003,0.0
816,816,-0.723258953311058,-0.7,1,427.0,961.0,1.0,-438.0,1,0.44085401654619094,0.0
817,817,-0.8097928861697354,-0.8,1,258.0,860.0,1.0,822.0,1,0.3502569373147137,0.0
818,818,-0.5797520956624744,-0.6,1,496.0,843.0,1.0,-1219.0,1,0.5334628779732487,0.0
819,819,0.21102578688073703,0.2,0,435.0,552.0,0.0,-207.0,1,0.49275336312798357,0.0
820,820,0.3475133456828643,0.3,0,446.0,568.0,0.0,246.0,1,0.41973281416421737,0.0
821,821,0.37821328510853447,0.4,0,449.0,704.0,0.0,877.0,1,0.38478944451439084,0.0
822,822,0.7730267371801112,0.8,0,285.0,848.0,1.0,-713.0,0,0.5700456828280743,0.0
823,823,-0.41039247211882834,-0.4,1,379.0,697.0,1.0,264.0,1,0.5014723934643317,0.0
824,824,0.6630493704446179,0.7,0,423.0,966.0,0.0,211.0,1,0.40187939439706327,0.0
825,825,-0.11140058476619741,-0.1,1,302.0,955.0,0.0,-967.0,0,0.5169849107734593,0.0
826,826,0.5212992912648733,0.5,0,462.0,640.0,0.0,-752.0,1,0.5534143342697727,0.0
827,827,0.5663370425368137,0.6,0,467.0,673.0,0.0,1550.0,1,0.34121402225800773,0.0
828,828,0.5118091866543606,0.5,0,477.0,920.0,0.0,3603.0,1,0.31467522128727016,0.0
829,829,0.08435592514643941,0.1,0,468.0,733.0,1.0,-881.0,0,0.5502753110016949,0.0
830,830,-0.8599892344523932,-0.9,1,448.0,811.0,1.0,181.0,1,0.34146400914494124,0.0
831,831,-0.7410735111278712,-0.7,1,413.0,826.0,0.0,-589.0,0,0.562044198498828,0.0
832,832,-0.004450056001741309,-0.0,1,351.0,854.0,1.0,-285.0,1,0.44029340167524395,0.0
833,833,-0.6577919148242821,-0.7,1,255.0,908.0,1.0,347.0,1,0.40174036783989947,0.0
834,834,-0.4322310471452695,-0.4,1,370.0,815.0,1.0,335.0,1,0.4806978791523382,0.0
835,835,-0.7697855222552901,-0.8,1,316.0,864.0,0.0,-660.0,0,0.45200103610217435,0.0
836,836,0.006569732966710484,0.0,0,452.0,795.0,1.0,753.0,0,0.4928565907432062,0.0
837,837,0.8899182165613451,0.9,0,461.0,897.0,0.0,102.0,1,0.3647724650653076,0.0
838,838,0.6716010386597921,0.7,0,329.0,925.0,0.0,186.0,1,0.4097605459044677,0.0
839,839,0.10922577337723571,0.1,0,279.0,657.0,0.0,1844.0,1,0.4159303580780754,0.0
840,840,-0.10296928546049089,-0.1,1,492.0,956.0,1.0,3552.0,1,0.3646817076116011,0.0
841,841,-0.7762934756880211,-0.8,1,400.0,927.0,1.0,-1157.0,1,0.4776615421539485,0.0
842,842,0.9149018595206757,0.9,0,416.0,979.0,0.0,225.0,1,0.4271389794076321,0.0
843,843,-0.6535665527007763,-0.7,1,288.0,827.0,1.0,145.0,1,0.45173903851530983,0.0
844,844,0.7530594350107103,0.8,0,324.0,719.0,0.0,157.0,1,0.4974389422666121,0.0
845,845,-0.6515567871503123,-0.7,1,346.0,751.0,1.0,953.0,1,0.3106738881975841,0.0
846,846,-0.2701422664630113,-0.3,1,320.0,706.0,1.0,494.0,1,0.5678080447236331,0.0
847,847,0.40342276099895447,0.4,0,299.0,912.0,0.0,1329.0,1,0.3925944677884138,0.0
848,848,0.6143210411328508,0.6,0,410.0,732.0,0.0,148.0,1,0.4300468468109573,0.0
849,849,0.39976033606288186,0.4,0,470.0,671.0,0.0,509.0,1,0.39607085198664127,0.0
850,850,-0.10637463180065243,-0.1,1,312.0,756.0,1.0,3932.0,1,0.30006879865670805,0.0
851,851,0.36247286983544336,0.4,0,351.0,860.0,0.0,1059.0,1,0.46758694631298825,0.0
852,852,-0.6802676457440662,-0.7,1,402.0,838.0,1.0,1500.0,1,0.3151081223921572,0.0
853,853,-0.2568314957835591,-0.3,1,259.0,619.0,1.0,102.0,1,0.5710027527536258,0.0
854,854,0.5828692961334818,0.6,0,297.0,879.0,0.0,2354.0,1,0.31201021700939646,0.0
855,855,0.5542974912263021,0.6,0,277.0,656.0,1.0,-633.0,0,0.578814283735062,0.0
856,856,0.2321680321995776,0.2,0,291.0,922.0,1.0,-253.0,0,0.5426857518111092,0.0
857,857,-0.2479391914269402,-0.2,1,492.0,666.0,1.0,82.0,1,0.4058092748049864,0.0
858,858,-0.49512396469902686,-0.5,1,333.0,779.0,0.0,-142.0,0,0.41858461194829555,0.0
859,859,0.5447704146950161,0.5,0,332.0,829.0,0.0,959.0,1,0.34273405727782763,0.0
860,860,0.8136751700578673,0.8,0,301.0,955.0,1.0,-646.0,0,0.5052290194300968,0.0
861,861,0.9350528456390135,0.9,0,307.0,949.0,0.0,114.0,1,0.3930925277225905,0.0
862,862,-0.1509986912018575,-0.2,1,365.0,746.0,0.0,-181.0,0,0.49764754313509185,0.0
863,863,-0.177787825271013,-0.2,1,472.0,923.0,0.0,-735.0,0,0.5814989657692575,0.0
864,864,0.39088623681121715,0.4,0,472.0,662.0,0.0,606.0,1,0.45771235506873686,0.0
865,865,-0.3331408431469254,-0.3,1,298.0,855.0,1.0,977.0,1,0.40901863640547287,0.0
866,866,0.10245260428256175,0.1,0,338.0,570.0,0.0,2272.0,1,0.38469920663268425,0.0
867,867,-0.5126030769639076,-0.5,1,406.0,725.0,1.0,-911.0,1,0.5241285589250346,0.0
868,868,0.057921315032051224,0.1,0,330.0,714.0,0.0,3956.0,1,0.32394319403166166,0.0
869,869,-0.7439614107589847,-0.7,1,327.0,935.0,1.0,198.0,1,0.3823646304507422,0.0
870,870,-0.8913662839458567,-0.9,1,378.0,552.0,1.0,150.0,1,0.4601342395903931,0.0
871,871,-0.33146456321007345,-0.3,1,402.0,773.0,1.0,3825.0,1,0.3556369634264423,0.0
872,872,0.8797905321734067,0.9,0,473.0,649.0,0.0,218.0,1,0.4438960872559412,0.0
873,873,-0.8542089877594445,-0.9,1,339.0,583.0,1.0,48.0,1,0.5169824198126872,0.0
874,874,-0.1654547699560207,-0.2,1,469.0,681.0,1.0,1960.0,1,0.42380873496306487,0.0
875,875,0.3013574522326439,0.3,0,348.0,605.0,0.0,617.0,1,0.37613315013599113,0.0
876,876,-0.8240646846002875,-0.8,1,413.0,544.0,1.0,2563.0,1,0.308046091581957,0.0
877,877,0.065015136717401,0.1,0,446.0,529.0,0.0,4025.0,1,0.34657321122697593,0.0
878,878,0.6627393351517721,0.7,0,300.0,623.0,0.0,127.0,1,0.4440474027031017,0.0
879,879,-0.9993229381029509,-1.0,1,328.0,915.0,0.0,-193.0,0,0.5593486188678429,0.0
880,880,0.8589780361056527,0.9,0,307.0,778.0,0.0,-805.0,1,0.5223229547619772,0.0
881,881,0.6663237492675018,0.7,0,444.0,825.0,0.0,581.0,1,0.44478525293040094,0.0
882,882,0.8080810143562207,0.8,0,367.0,963.0,0.0,370.0,1,0.35655587883406176,0.0
883,883,0.3615708799542261,0.4,0,289.0,623.0,0.0,1408.0,1,0.3717381939058281,0.0
884,884,-0.7151717470180528,-0.7,1,318.0,884.0,1.0,168.0,1,0.40166318608010537,0.0
885,885,0.3494371462423884,0.3,0,392.0,543.0,1.0,-615.0,0,0.5987218223628007,0.0
886,886,-0.2751533299497917,-0.3,1,360.0,616.0,1.0,634.0,1,0.566176113749587,0.0
887,887,-0.2194569732528422,-0.2,1,267.0,815.0,1.0,1568.0,1,0.4501416864701382,0.0
888,888,0.5550073713716692,0.6,0,272.0,632.0,0.0,56.0,1,0.4699343300254222,0.0
889,889,-0.39120361001399573,-0.4,1,320.0,904.0,1.0,1166.0,1,0.3524117007591254,0.0
890,890,0.6668535365965871,0.7,0,492.0,706.0,0.0,362.0,1,0.4760834139614123,0.0
891,891,-0.7103576523428001,-0.7,1,446.0,537.0,1.0,47.0,1,0.5613232205270625,0.0
892,892,-0.6223015250888848,-0.6,1,413.0,725.0,1.0,472.0,1,0.34119719451897945,0.0
893,893,-0.23009141271383204,-0.2,1,347.0,508.0,1.0,-735.0,1,0.5938771760088543,0.0
894,894,0.8247222108724446,0.8,0,298.0,566.0,1.0,-504.0,0,0.5089953188513456,0.0
895,895,-0.5513216826479928,-0.6,1,431.0,819.0,0.0,-990.0,0,0.4686630890217884,0.0
896,896,-0.08356862689698819,-0.1,1,436.0,948.0,1.0,1216.0,1,0.46133053619986397,0.0
897,897,0.4325382533177453,0.4,0,364.0,859.0,0.0,817.0,1,0.3657442972429234,0.0
898,898,-0.8615760166918742,-0.9,1,381.0,589.0,1.0,60.0,1,0.5944046161034688,0.0
899,899,0.7441984718727666,0.7,0,259.0,562.0,1.0,-431.0,0,0.5441660859177404,0.0
900,900,-0.3020051904074703,-0.3,1,480.0,721.0,0.0,29.0,0,0.4745272801597703,0.0
901,901,0.9862595820844959,1.0,0,316.0,893.0,0.0,171.0,1,0.482857467711835,0.0
902,902,0.1628304007729724,0.2,0,297.0,667.0,1.0,-4.0,0,0.5497247755217768,0.0
903,903,-0.7810356543551196,-0.8,1,318.0,953.0,1.0,189.0,1,0.45931903548885067,0.0
904,904,-0.1615936203611168,-0.2,1,392.0,680.0,1.0,1318.0,1,0.4482549406935462,0.0
905,905,0.26954964017080774,0.3,0,448.0,868.0,0.0,1184.0,1,0.42397237455587966,0.0
906,906,0.2192600415100765,0.2,0,318.0,859.0,0.0,3823.0,1,0.3980544553783176,0.0
907,907,-0.8593889127413974,-0.9,1,318.0,921.0,1.0,-939.0,1,0.5294998819242979,0.0
908,908,-0.20471914672865266,-0.2,1,464.0,941.0,1.0,35.0,1,0.43091041917809303,0.0
909,909,0.39052588909014996,0.4,0,442.0,862.0,0.0,916.0,1,0.5064311653150843,0.0
910,910,0.30978963254420977,0.3,0,270.0,594.0,0.0,-334.0,1,0.5032343412738447,0.0
911,911,-0.14190395781634968,-0.1,1,349.0,603.0,1.0,58.0,1,0.46287037104903267,0.0
912,912,0.5029967840457379,0.5,0,439.0,907.0,0.0,3654.0,1,0.31302238112252234,0.0
913,913,0.8513667422461406,0.9,0,437.0,561.0,0.0,152.0,1,0.49025520810107465,0.0
914,914,-0.5821227417347192,-0.6,1,309.0,931.0,1.0,-390.0,1,0.5455358357127386,0.0
915,915,-0.5434338478855485,-0.5,1,254.0,668.0,1.0,378.0,1,0.5130818432010102,0.0
916,916,0.08937716253822225,0.1,0,309.0,976.0,1.0,-55.0,0,0.49505478260410285,0.0
917,917,0.6102719215550256,0.6,0,367.0,741.0,1.0,-588.0,0,0.4659489811728146,0.0
918,918,0.3365806632203814,0.3,0,324.0,811.0,0.0,605.0,1,0.37038326278286365,0.0
919,919,0.7552727003616235,0.8,0,484.0,647.0,1.0,-151.0,0,0.48910071911360464,0.0
920,920,0.38468857395269684,0.4,0,391.0,972.0,0.0,3017.0,1,0.3446998308787444,0.0
921,921,-0.8788416612464309,-0.9,1,409.0,507.0,1.0,-516.0,1,0.5706715640210911,0.0
922,922,-0.34414134062289325,-0.3,1,380.0,508.0,1.0,2442.0,1,0.3570856243232513,0.0
923,923,-0.9183159110067924,-0.9,1,443.0,569.0,1.0,188.0,1,0.4080363400858412,0.0
924,924,-0.07370300981267852,-0.1,1,273.0,927.0,1.0,1210.0,1,0.508501527924816,0.0
925,925,-0.2463352946352102,-0.2,1,300.0,645.0,1.0,405.0,1,0.46716778849933227,0.0
926,926,-0.38418910999691347,-0.4,1,405.0,892.0,1.0,143.0,1,0.48474539048155696,0.0
927,927,0.15227814696253428,0.2,0,478.0,975.0,0.0,1107.0,1,0.38968151698860964,0.0
928,928,0.24728854832170355,0.2,0,305.0,987.0,1.0,-72.0,0,0.40842479877315613,0.0
929,929,0.9624225097632748,1.0,0,486.0,566.0,0.0,98.0,1,0.49684641564367116,0.0
930,930,0.045755329337347384,0.0,0,288.0,636.0,0.0,-534.0,1,0.4807039687490904,0.0
931,931,0.33814289932257413,0.3,0,475.0,617.0,0.0,308.0,1,0.482681877505729,0.0
932,932,-0.3795556685504766,-0.4,1,256.0,728.0,1.0,296.0,1,0.5178718579124989,0.0
933,933,-0.6318870980823459,-0.6,1,281.0,672.0,0.0,-583.0,0,0.5962443031807116,0.0
934,934,-0.25744697036444997,-0.3,1,473.0,944.0,1.0,633.0,1,0.45943294994084727,0.0
935,935,0.8411691374685537,0.8,0,295.0,596.0,0.0,329.0,1,0.4280363996850879,0.0
936,936,-0.20280367745579353,-0.2,1,310.0,540.0,1.0,630.0,1,0.43171713525862876,0.0
937,937,-0.5481665152794433,-0.5,1,360.0,930.0,1.0,1640.0,1,0.37504527957980627,0.0
938,938,-0.37935648157250723,-0.4,1,294.0,990.0,1.0,3716.0,1,0.34446486442545116,0.0
939,939,0.5985539385461309,0.6,0,411.0,791.0,0.0,148.0,1,0.4952203881907019,0.0
940,940,0.6855637401287575,0.7,0,442.0,652.0,1.0,-604.0,0,0.5756878282743634,0.0
941,941,-0.32647620735259597,-0.3,1,320.0,862.0,1.0,618.0,1,0.4775621187813175,0.0
942,942,0.6382450355283797,0.6,0,489.0,856.0,1.0,-515.0,0,0.5579008990322715,0.0
943,943,0.6220080466700766,0.6,0,306.0,999.0,0.0,-625.0,1,0.5815000134165123,0.0
944,944,-0.5926183365548983,-0.6,1,343.0,534.0,0.0,-167.0,0,0.5909119812342636,0.0
945,945,0.469012549286113,0.5,0,273.0,739.0,0.0,738.0,1,0.41328511774814936,0.0
946,946,-0.955513104932683,-1.0,1,318.0,928.0,1.0,294.0,1,0.3389299355496372,0.0
947,947,0.6047491458922079,0.6,0,301.0,670.0,0.0,839.0,1,0.3452786742162134,0.0
948,948,-0.3325898243822891,-0.3,1,266.0,653.0,1.0,4081.0,1,0.3214034018412949,0.0
949,949,-0.06772706099846704,-0.1,1,267.0,955.0,1.0,3778.0,1,0.305573078449815,0.0
950,950,-0.9613589402263363,-1.0,1,389.0,607.0,1.0,454.0,1,0.32467627376972696,0.0
951,951,0.2527131889243086,0.3,0,430.0,716.0,0.0,3854.0,1,0.32829972820647346,0.0
952,952,-0.6010069641015718,-0.6,1,273.0,861.0,1.0,376.0,1,0.5880602018850198,0.0
953,953,-0.805385911598137,-0.8,1,376.0,957.0,1.0,127.0,1,0.4658980924755752,0.0
954,954,0.9123665015199385,0.9,0,479.0,685.0,0.0,56.0,1,0.3726585586219632,0.0
955,955,0.7317451126750536,0.7,0,341.0,548.0,1.0,-599.0,0,0.5333002422860111,0.0
956,956,0.9921770652817652,1.0,0,289.0,947.0,0.0,214.0,1,0.4155707816933495,0.0
957,957,-0.2365736719602749,-0.2,1,293.0,696.0,1.0,391.0,1,0.5963436832944359,0.0
958,958,-0.6274431611125488,-0.6,1,301.0,563.0,1.0,4136.0,1,0.3063133288299031,0.0
959,959,0.11229119829218148,0.1,0,416.0,616.0,1.0,3968.0,0,0.36803094061035363,0.0
960,960,-0.5744851693845707,-0.6,1,381.0,504.0,1.0,315.0,1,0.48183345450795756,0.0
961,961,-0.36678122121467593,-0.4,1,289.0,716.0,1.0,3995.0,1,0.3383180889485134,0.0
962,962,-0.036486585510170144,-0.0,1,435.0,698.0,1.0,3547.0,1,0.5124124279543508,0.0
963,963,-0.32070297509744927,-0.3,1,492.0,773.0,1.0,3735.0,1,0.32606717422886855,0.0
964,964,0.6865094314373767,0.7,0,387.0,546.0,0.0,397.0,1,0.37197500786090426,0.0
965,965,0.5126365141591376,0.5,0,391.0,963.0,0.0,3646.0,1,0.34465443119303735,0.0
966,966,0.522087301162794,0.5,0,383.0,556.0,0.0,751.0,1,0.3317571787981399,0.0
967,967,-0.06232054103882567,-0.1,1,427.0,526.0,1.0,4047.0,1,0.38069095733919744,0.0
968,968,0.8737083246155846,0.9,0,353.0,837.0,1.0,-990.0,0,0.5084861426023738,0.0
969,969,-0.13958228601557776,-0.1,1,480.0,689.0,0.0,-959.0,0,0.5427034353861424,0.0
970,970,0.5114829933810496,0.5,0,497.0,957.0,0.0,226.0,1,0.38810693960346637,0.0
971,971,-0.6189050889467649,-0.6,1,354.0,793.0,1.0,1833.0,1,0.33879266021093846,0.0
972,972,-0.5770002484727272,-0.6,1,472.0,652.0,1.0,56.0,1,0.525504143986633,0.0
973,973,-0.5007858477901754,-0.5,1,422.0,593.0,0.0,-565.0,0,0.5475055823063124,0.0
974,974,-0.9864122411004443,-1.0,1,295.0,681.0,1.0,344.0,1,0.35706670793574147,0.0
975,975,0.980775559600791,1.0,0,433.0,796.0,0.0,101.0,1,0.3958750277255068,0.0
976,976,0.9094322018736756,0.9,0,432.0,994.0,0.0,-36.0,1,0.4340867358634231,0.0
977,977,0.0069573888725475985,0.0,0,284.0,965.0,1.0,1461.0,0,0.42566076033978273,0.0
978,978,0.9731661392677948,1.0,0,426.0,724.0,1.0,-990.0,0,0.49859187435896724,0.0
979,979,-0.14309637804493192,-0.1,1,379.0,556.0,0.0,-785.0,0,0.5338920317552172,0.0
980,980,-0.7489083709018758,-0.7,1,395.0,615.0,1.0,-340.0,1,0.5698373866784174,0.0
981,981,-0.40105840929848635,-0.4,1,404.0,872.0,1.0,174.0,1,0.4248830881741489,0.0
982,982,0.9275673364006682,0.9,0,327.0,906.0,0.0,547.0,1,0.3548641788840279,0.0
983,983,-0.6095985820916472,-0.6,1,290.0,511.0,1.0,159.0,1,0.4873882519554198,0.0
984,984,0.35059854552351144,0.4,0,406.0,840.0,1.0,-556.0,0,0.4953066054447106,0.0
985,985,-0.009347540701480472,-0.0,1,416.0,815.0,1.0,-831.0,1,0.5622664369283835,0.0
986,986,0.2934324546362541,0.3,0,396.0,775.0,0.0,109.0,1,0.4124928324939141,0.0
987,987,0.964623868563024,1.0,0,443.0,958.0,0.0,-911.0,1,0.5132423431385863,0.0
988,988,0.4041055396861011,0.4,0,335.0,801.0,0.0,634.0,1,0.3973324613396494,0.0
989,989,-0.5875584062719479,-0.6,1,428.0,640.0,1.0,1272.0,1,0.378637494818679,0.0
990,990,-0.43707994155762075,-0.4,1,484.0,761.0,1.0,225.0,1,0.45660768805881197,0.0
991,991,-0.3072449782713882,-0.3,1,323.0,661.0,1.0,-134.0,1,0.4405706404785109,0.0
992,992,-0.05014110110458003,-0.1,1,339.0,917.0,1.0,3744.0,1,0.39029528772161803,0.0
993,993,0.06949662081797503,0.1,0,488.0,865.0,0.0,3647.0,1,0.4282799041258095,0.0
994,994,0.4124697794176584,0.4,0,304.0,799.0,0.0,-833.0,1,0.5604991342587726,0.0
995,995,-0.46872520080198066,-0.5,1,282.0,723.0,0.0,-205.0,0,0.50809681132251,0.0
996,996,0.18486445888295244,0.2,0,365.0,758.0,0.0,-323.0,1,0.5064053432723465,0.0
997,997,0.7172271281768965,0.7,0,270.0,783.0,1.0,-523.0,0,0.5742618769660335,0.0
998,998,0.023629752972278872,0.0,0,466.0,880.0,1.0,3654.0,0,0.32126451107925447,0.0
999,999,0.3251221428062798,0.3,0,334.0,889.0,0.0,-103.0,1,0.40509876774372,0.0
1000,1000,-0.7384439136958076,-0.7,1,441.0,683.0,1.0,-974.0,1,0.5242730477018576,0.0
1001,1001,-0.6633587640011336,-0.7,1,304.0,997.0,1.0,-551.0,1,0.5003742052189883,0.0
1002,1002,-0.5561790864011156,-0.6,1,266.0,850.0,1.0,384.0,1,0.3839998422311688,0.0
1003,1003,0.508617958460376,0.5,0,452.0,624.0,1.0,-26.0,0,0.5730323248416552,0.0
1004,1004,-0.6298571103865085,-0.6,1,353.0,741.0,1.0,-764.0,1,0.5038247108959505,0.0
1005,1005,-0.8784880439448388,-0.9,1,458.0,995.0,1.0,397.0,1,0.3372779463020127,0.0
1006,1006,-0.0007185343076454576,-0.0,1,289.0,594.0,1.0,827.0,1,0.36848974272866014,0.0
1007,1007,-0.5702687076784516,-0.6,1,253.0,700.0,1.0,4047.0,1,0.31164839540156214,0.0
1008,1008,0.34279899697818483,0.3,0,253.0,720.0,0.0,-763.0,1,0.5678752218248106,0.0
1009,1009,0.6339664772018736,0.6,0,451.0,644.0,0.0,-715.0,1,0.5891580446896518,0.0
1010,1010,0.5172689822743395,0.5,0,387.0,778.0,1.0,-295.0,0,0.571289953396686,0.0
1011,1011,-0.2237144187080664,-0.2,1,426.0,504.0,0.0,660.0,0,0.5285284134198555,0.0
1012,1012,-0.09344201605406233,-0.1,1,428.0,559.0,1.0,-557.0,1,0.535654056240825,0.0
1013,1013,-0.04836426455369369,-0.0,1,271.0,687.0,1.0,1502.0,1,0.44267299543673205,0.0
1014,1014,0.2917870093707837,0.3,0,472.0,624.0,0.0,1034.0,1,0.4417273581021368,0.0
1015,1015,0.0419733390499788,0.0,0,495.0,892.0,1.0,-867.0,0,0.5401320485721184,0.0
1016,1016,0.6591717201991731,0.7,0,364.0,838.0,0.0,-72.0,1,0.5852970985504828,0.0
1017,1017,0.03957711858655766,0.0,0,470.0,898.0,0.0,-1118.0,1,0.5946840703598772,0.0
1018,1018,0.01869867167113992,0.0,0,426.0,599.0,1.0,3975.0,0,0.3084559906953496,0.0
1019,1019,0.5260115379164914,0.5,0,296.0,530.0,0.0,854.0,1,0.33845606263081673,0.0
1020,1020,-0.4505640737778107,-0.5,1,450.0,648.0,1.0,592.0,1,0.4326379788606764,0.0
1021,1021,-0.05430566158713224,-0.1,1,497.0,732.0,1.0,-889.0,1,0.4546108013246396,0.0
1022,1022,-0.038885538842222456,-0.0,1,430.0,702.0,1.0,188.0,1,0.5347943987052393,0.0
1023,1023,-0.9537906750070229,-1.0,1,391.0,993.0,1.0,86.0,1,0.4886268903416957,0.0
1024,1024,-0.43821609376799464,-0.4,1,284.0,609.0,1.0,197.0,1,0.5215705287530104,0.0
1025,1025,0.8937739166473997,0.9,0,283.0,854.0,0.0,1153.0,1,0.32728837643211783,0.0
1026,1026,-0.44632017144842195,-0.4,1,319.0,712.0,1.0,329.0,1,0.4504574696474588,0.0
1027,1027,-0.8243414548627341,-0.8,1,340.0,811.0,0.0,-611.0,0,0.46078715646899293,0.0
1028,1028,-0.8573746269420595,-0.9,1,299.0,632.0,1.0,269.0,1,0.3423438443989951,0.0
1029,1029,0.37698335865846855,0.4,0,316.0,685.0,0.0,3799.0,1,0.34709432205084356,0.0
1030,1030,-0.8544278680004014,-0.9,1,459.0,794.0,1.0,547.0,1,0.37561157973795767,0.0
1031,1031,0.7154496480307524,0.7,0,421.0,827.0,0.0,312.0,1,0.36399669613692864,0.0
1032,1032,0.03920229186715374,0.0,0,486.0,581.0,1.0,1273.0,0,0.5133698755057029,0.0
1033,1033,0.01878532086272644,0.0,0,376.0,680.0,1.0,674.0,0,0.47316730172891597,0.0
1034,1034,-0.511034117193673,-0.5,1,261.0,509.0,0.0,-240.0,0,0.5571194260165053,0.0
1035,1035,-0.3172963318523634,-0.3,1,314.0,698.0,1.0,3988.0,1,0.3065546437940981,0.0
1036,1036,0.7979391143106009,0.8,0,341.0,644.0,0.0,125.0,1,0.3804828533035677,0.0
1037,1037,0.4666075752521466,0.5,0,442.0,949.0,0.0,-1041.0,1,0.531897451830133,0.0
1038,1038,-0.06588521356239396,-0.1,1,265.0,948.0,1.0,-253.0,1,0.5401193522690432,0.0
1039,1039,0.8405878002590099,0.8,0,330.0,508.0,0.0,712.0,1,0.3088412686575668,0.0
1040,1040,-0.04842115580961459,-0.0,1,429.0,834.0,0.0,-363.0,0,0.5147765624339962,0.0
1041,1041,-0.3528473757030952,-0.4,1,471.0,508.0,1.0,241.0,1,0.4869216152911166,0.0
1042,1042,-0.4523578281863023,-0.5,1,275.0,835.0,1.0,-210.0,1,0.5057392226182115,0.0
1043,1043,0.19599304633524484,0.2,0,329.0,553.0,0.0,58.0,1,0.5684647452635622,0.0
1044,1044,0.17619959798286255,0.2,0,391.0,604.0,1.0,-345.0,0,0.5919349502453028,0.0
1045,1045,-0.7863263775568139,-0.8,1,347.0,606.0,1.0,1767.0,1,0.31002071347520277,0.0
1046,1046,0.009052888110381074,0.0,0,494.0,598.0,1.0,3908.0,0,0.4171967177974414,0.0
1047,1047,0.440019302697094,0.4,0,317.0,786.0,0.0,487.0,1,0.454465477992845,0.0
1048,1048,0.6015509666037435,0.6,0,277.0,976.0,0.0,-493.0,1,0.5082114690902377,0.0
1049,1049,-0.9911769519981624,-1.0,1,330.0,507.0,1.0,-457.0,1,0.5244194483779498,0.0
1050,1050,0.265786950480825,0.3,0,314.0,793.0,0.0,873.0,1,0.40640005488459735,0.0
1051,1051,-0.6708902272272856,-0.7,1,448.0,863.0,0.0,-931.0,0,0.539010575464256,0.0
1052,1052,-0.425016498938787,-0.4,1,403.0,642.0,1.0,235.0,1,0.42875542508888365,0.0
1053,1053,0.3647125914661995,0.4,0,331.0,586.0,0.0,2223.0,1,0.3573145483354916,0.0
1054,1054,-0.26697440093557256,-0.3,1,259.0,502.0,1.0,319.0,1,0.4390560154851565,0.0
1055,1055,0.215793337407711,0.2,0,477.0,532.0,0.0,1211.0,1,0.5565730010162737,0.0
1056,1056,-0.7033046985983846,-0.7,1,453.0,705.0,1.0,252.0,1,0.48837628923371645,0.0
1057,1057,0.5773424316393803,0.6,0,474.0,688.0,1.0,-962.0,0,0.42369941396552735,0.0
1058,1058,-0.5102531620092585,-0.5,1,315.0,914.0,1.0,901.0,1,0.39069337202605503,0.0
1059,1059,0.48624433246575216,0.5,0,412.0,692.0,0.0,-784.0,1,0.5837078907708353,0.0
1060,1060,-0.6986834564588607,-0.7,1,495.0,902.0,1.0,403.0,1,0.39325938846592784,0.0
1061,1061,-0.19636575688261182,-0.2,1,315.0,959.0,1.0,1436.0,1,0.4365277412913389,0.0
1062,1062,0.41869010738670354,0.4,0,471.0,785.0,1.0,-506.0,0,0.58002361073118,0.0
1063,1063,-0.31042723139236883,-0.3,1,335.0,655.0,1.0,4010.0,1,0.307815557679991,0.0
1064,1064,0.8540627281168391,0.9,0,370.0,726.0,1.0,-686.0,0,0.44995358842700695,0.0
1065,1065,-0.04317894276695977,-0.0,1,418.0,569.0,1.0,4013.0,1,0.3292168225762118,0.0
1066,1066,-0.5919800867887455,-0.6,1,469.0,856.0,1.0,305.0,1,0.44979989517261476,0.0
1067,1067,0.9366801689378015,0.9,0,400.0,926.0,0.0,-246.0,1,0.4656502244165962,0.0
1068,1068,0.20763220945052518,0.2,0,307.0,982.0,0.0,-699.0,1,0.47259733081969624,0.0
1069,1069,-0.3275673428517132,-0.3,1,421.0,834.0,1.0,95.0,1,0.547161036974279,0.0
1070,1070,-0.30922516069100014,-0.3,1,423.0,902.0,1.0,3675.0,1,0.31749284482498774,0.0
1071,1071,-0.9646201515419102,-1.0,1,425.0,945.0,1.0,-910.0,1,0.587405604820994,0.0
1072,1072,0.0854890848076113,0.1,0,272.0,844.0,0.0,194.0,1,0.4626913784498028,0.0
1073,1073,-0.3887874788446892,-0.4,1,441.0,865.0,1.0,554.0,1,0.3785607879024185,0.0
1074,1074,0.7505487827630997,0.8,0,494.0,802.0,0.0,654.0,1,0.3588187678489968,0.0
1075,1075,0.3674032310694306,0.4,0,481.0,943.0,1.0,-684.0,0,0.46937528901478964,0.0
1076,1076,0.3961844121563667,0.4,0,428.0,960.0,0.0,3512.0,1,0.3671222128023699,0.0
1077,1077,-0.5239647485202235,-0.5,1,272.0,999.0,1.0,259.0,1,0.4645572735407972,0.0
1078,1078,-0.6509424282352312,-0.7,1,430.0,702.0,1.0,48.0,1,0.4990066150659806,0.0
1079,1079,-0.886460838079576,-0.9,1,361.0,915.0,1.0,84.0,1,0.5158532326907846,0.0
1080,1080,0.2848050670493172,0.3,0,284.0,837.0,0.0,3879.0,1,0.3216834394506449,0.0
1081,1081,0.8880659322715807,0.9,0,432.0,871.0,0.0,-1093.0,1,0.5912184063103041,0.0
1082,1082,-0.06468337420124626,-0.1,1,278.0,723.0,0.0,3999.0,0,0.3875986351533901,0.0
1083,1083,0.34643290703276364,0.3,0,462.0,878.0,0.0,630.0,1,0.49051208282268843,0.0
1084,1084,0.16540628523729906,0.2,0,494.0,861.0,0.0,3645.0,1,0.38634833111912714,0.0
1085,1085,-0.3725368252845036,-0.4,1,341.0,842.0,1.0,1047.0,1,0.422704852104803,0.0
1086,1086,-0.4951689279912346,-0.5,1,484.0,532.0,1.0,424.0,1,0.5482009794859783,0.0
1087,1087,-0.8330891358292452,-0.8,1,461.0,667.0,1.0,242.0,1,0.5251933208199439,0.0
1088,1088,-0.6622342029196879,-0.7,1,454.0,864.0,1.0,-388.0,1,0.48011563033107163,0.0
1089,1089,-0.32888461598991037,-0.3,1,482.0,842.0,1.0,3676.0,1,0.32575671346639307,0.0
1090,1090,-0.11099816013510089,-0.1,1,430.0,515.0,1.0,4055.0,1,0.3374245182411156,0.0
1091,1091,-0.5156601000470573,-0.5,1,251.0,676.0,1.0,333.0,1,0.527159554025793,0.0
1092,1092,0.8886960763076379,0.9,0,496.0,570.0,0.0,164.0,1,0.43808030573885226,0.0
1093,1093,-0.6046225808879273,-0.6,1,396.0,669.0,1.0,335.0,1,0.34898935919456886,0.0
1094,1094,-0.4364272601120076,-0.4,1,283.0,811.0,1.0,336.0,1,0.4589589508153603,0.0
1095,1095,0.7450264918267573,0.7,0,457.0,796.0,0.0,577.0,1,0.37747961076271935,0.0
1096,1096,0.011665225544553737,0.0,0,385.0,647.0,1.0,3968.0,0,0.4055324384381654,0.0
1097,1097,0.5337291069040511,0.5,0,279.0,555.0,0.0,186.0,1,0.44161912682904214,0.0
1098,1098,0.8491127137544277,0.8,0,374.0,555.0,0.0,221.0,1,0.3851448052207653,0.0
1099,1099,-0.1497419602893475,-0.1,1,252.0,556.0,1.0,72.0,1,0.4669192574033929,0.0
1100,1100,0.4158047663393212,0.4,0,406.0,959.0,0.0,165.0,1,0.5426684612828869,0.0
1101,1101,0.3589096607376503,0.4,0,334.0,672.0,0.0,-86.0,1,0.5012500321043168,0.0
1102,1102,-0.6702645538078238,-0.7,1,417.0,570.0,1.0,293.0,1,0.38914427908439236,0.0
1103,1103,-0.25437872248081983,-0.3,1,414.0,660.0,1.0,-124.0,1,0.471769176316296,0.0
1104,1104,-0.9742869130181768,-1.0,1,454.0,982.0,1.0,-496.0,1,0.5081706839719802,0.0
1105,1105,0.7579204280585803,0.8,0,499.0,910.0,0.0,161.0,1,0.4207257221881303,0.0
1106,1106,-0.5207394014987168,-0.5,1,284.0,852.0,1.0,2274.0,1,0.32612193526691036,0.0
1107,1107,0.050233828242939316,0.1,0,366.0,901.0,0.0,3733.0,1,0.40448219609088226,0.0
1108,1108,0.12803781478855747,0.1,0,495.0,796.0,0.0,429.0,1,0.42950612076914707,0.0
1109,1109,0.47765791541163405,0.5,0,272.0,507.0,1.0,-399.0,0,0.5159472727555982,0.0
1110,1110,-0.9195261238981782,-0.9,1,351.0,919.0,1.0,-1000.0,1,0.5417036232883581,0.0
1111,1111,-0.14995405540875062,-0.1,1,321.0,631.0,0.0,-502.0,0,0.47581989490059606,0.0
1112,1112,-0.8804005186150801,-0.9,1,469.0,972.0,1.0,239.0,1,0.42187808144897854,0.0
1113,1113,0.34548037337020077,0.3,0,252.0,816.0,0.0,352.0,1,0.4513302099469262,0.0
1114,1114,-0.8532281142592661,-0.9,1,279.0,534.0,1.0,127.0,1,0.5267779763815288,0.0
1115,1115,-0.05497096357509634,-0.1,1,318.0,659.0,1.0,4023.0,1,0.3286963639308853,0.0
1116,1116,0.1602101119207242,0.2,0,416.0,658.0,0.0,-854.0,1,0.5992763119687659,0.0
1117,1117,0.32232511124885277,0.3,0,477.0,832.0,0.0,-749.0,1,0.5572711023547372,0.0
1118,1118,0.018222304622292018,0.0,0,352.0,709.0,0.0,-801.0,1,0.5710926316595549,0.0
1119,1119,0.17960186526676236,0.2,0,375.0,515.0,1.0,-10.0,0,0.5293943086003223,0.0
1120,1120,0.015693950526773692,0.0,0,336.0,539.0,0.0,4125.0,1,0.4121500432788822,0.0
1121,1121,0.48816664324236925,0.5,0,455.0,958.0,0.0,587.0,1,0.4147529512406453,0.0
1122,1122,0.8602006136901277,0.9,0,415.0,914.0,0.0,161.0,1,0.42595394101702955,0.0
1123,1123,-0.18567488037438729,-0.2,1,411.0,757.0,0.0,3832.0,0,0.37883505588984195,0.0
1124,1124,-0.44986983672117953,-0.4,1,377.0,922.0,0.0,-429.0,0,0.4627206781292491,0.0
1125,1125,-0.8965565108585529,-0.9,1,320.0,823.0,1.0,127.0,1,0.46120695137840473,0.0
1126,1126,0.3942031982553209,0.4,0,399.0,873.0,1.0,-1062.0,0,0.5893149312787156,0.0
1127,1127,0.2763911239306749,0.3,0,410.0,941.0,0.0,919.0,1,0.37616417238636435,0.0
1128,1128,0.10989991615013128,0.1,0,436.0,895.0,0.0,199.0,1,0.528494518215011,0.0
1129,1129,0.6026239316559288,0.6,0,285.0,803.0,0.0,162.0,1,0.49723823828432123,0.0
1130,1130,-0.8443201125355333,-0.8,1,350.0,993.0,0.0,-873.0,0,0.5577153516092189,0.0
1131,1131,-0.42041244893269725,-0.4,1,453.0,586.0,1.0,261.0,1,0.3793656222401716,0.0
1132,1132,-0.577506397698822,-0.6,1,497.0,950.0,1.0,343.0,1,0.389522653398746,0.0
1133,1133,-0.3681588670959657,-0.4,1,390.0,594.0,1.0,1066.0,1,0.44227728248370857,0.0
1134,1134,0.9460074707669823,0.9,0,376.0,767.0,1.0,-323.0,0,0.43775417618943746,0.0
1135,1135,0.1942645402198746,0.2,0,414.0,816.0,0.0,3770.0,1,0.3118911237772613,0.0
1136,1136,0.3960489221523771,0.4,0,346.0,992.0,1.0,-628.0,0,0.5132232851354726,0.0
1137,1137,0.8990339163131058,0.9,0,268.0,637.0,1.0,-45.0,0,0.4566872866123107,0.0
1138,1138,0.7319473838268304,0.7,0,386.0,575.0,0.0,-221.0,1,0.5283243931094925,0.0
1139,1139,-0.7142202662962875,-0.7,1,312.0,888.0,1.0,220.0,1,0.3898364857424185,0.0
1140,1140,0.602589550058747,0.6,0,385.0,771.0,0.0,1154.0,1,0.3117509239633922,0.0
1141,1141,-0.09438353709765557,-0.1,1,282.0,831.0,0.0,-873.0,0,0.5715491075381667,0.0
1142,1142,0.15698006129080877,0.2,0,465.0,631.0,1.0,294.0,0,0.5762328532964831,0.0
1143,1143,0.19088796398471874,0.2,0,446.0,770.0,1.0,-736.0,0,0.5106651829402349,0.0
1144,1144,-0.6741457405802864,-0.7,1,414.0,654.0,1.0,422.0,1,0.3644257009878885,0.0
1145,1145,0.6578108620162366,0.7,0,358.0,643.0,0.0,299.0,1,0.48864670798537535,0.0
1146,1146,-0.8849751898307554,-0.9,1,296.0,707.0,1.0,87.0,1,0.4389173077935542,0.0
1147,1147,0.6570439761298761,0.7,0,274.0,851.0,0.0,-875.0,1,0.5989793253673162,0.0
1148,1148,0.0023881238155039064,0.0,0,342.0,745.0,1.0,3913.0,0,0.41619986654455854,0.0
1149,1149,0.5381530444079787,0.5,0,411.0,519.0,0.0,1230.0,1,0.3350248753807656,0.0
1150,1150,0.4626114996276689,0.5,0,405.0,995.0,0.0,1180.0,1,0.3327116635526233,0.0
1151,1151,0.13726561972136575,0.1,0,350.0,533.0,1.0,-733.0,0,0.5160008328687278,0.0
1152,1152,0.35461703100470676,0.4,0,486.0,911.0,0.0,3603.0,1,0.3227101170408848,0.0
1153,1153,-0.4270129178226536,-0.4,1,383.0,780.0,1.0,1977.0,1,0.34863190630791574,0.0
1154,1154,0.1956921299927632,0.2,0,287.0,690.0,0.0,4023.0,1,0.36571723134974,0.0
1155,1155,-0.006913669753184415,-0.0,1,455.0,731.0,1.0,3814.0,1,0.414804701324576,0.0
1156,1156,-0.7459605718402496,-0.7,1,494.0,740.0,1.0,236.0,1,0.47984983709230367,0.0
1157,1157,-0.381289876891449,-0.4,1,348.0,714.0,1.0,748.0,1,0.357200554959656,0.0
1158,1158,0.9739527887876922,1.0,0,468.0,624.0,1.0,-372.0,0,0.5815983883901328,0.0
1159,1159,-0.289513150087767,-0.3,1,389.0,765.0,1.0,3846.0,1,0.30601541024619805,0.0
1160,1160,-0.967452291071573,-1.0,1,429.0,527.0,1.0,-736.0,1,0.5170662763717362,0.0
1161,1161,-0.7473438492455784,-0.7,1,405.0,887.0,1.0,238.0,1,0.42943719993269586,0.0
1162,1162,-0.5357244212310805,-0.5,1,486.0,756.0,1.0,-482.0,1,0.5758211529495347,0.0
1163,1163,-0.8074446646933726,-0.8,1,478.0,505.0,0.0,-573.0,0,0.563261017472078,0.0
1164,1164,-0.32353797459185607,-0.3,1,408.0,870.0,0.0,-458.0,0,0.5833170731047614,0.0
1165,1165,-0.9293738907952498,-0.9,1,378.0,727.0,1.0,255.0,1,0.4613836279065523,0.0
1166,1166,-0.946188310526183,-0.9,1,267.0,825.0,1.0,158.0,1,0.3682646877352211,0.0
1167,1167,0.5052709174732977,0.5,0,481.0,728.0,0.0,3791.0,1,0.3000176370909531,0.0
1168,1168,0.3854392345450586,0.4,0,467.0,586.0,0.0,-433.0,1,0.5012919900093019,0.0
1169,1169,0.748087584888188,0.7,0,292.0,767.0,0.0,331.0,1,0.4882968149380015,0.0
1170,1170,0.21494992259556756,0.2,0,296.0,633.0,0.0,3821.0,1,0.4086536720705749,0.0
1171,1171,0.9618644825642326,1.0,0,256.0,991.0,1.0,-987.0,0,0.555777550962509,0.0
1172,1172,-0.447610740189039,-0.4,1,276.0,651.0,1.0,-217.0,1,0.5101798114241808,0.0
1173,1173,0.8891854551780474,0.9,0,445.0,817.0,0.0,168.0,1,0.5630910253624146,0.0
1174,1174,0.7412232950347006,0.7,0,450.0,619.0,0.0,161.0,1,0.49174104075409897,0.0
1175,1175,0.02801317060734987,0.0,0,383.0,830.0,0.0,257.0,1,0.5012903363277953,0.0
1176,1176,-0.10412875784808495,-0.1,1,478.0,929.0,0.0,3593.0,0,0.41244024792537753,0.0
1177,1177,-0.5946721469742238,-0.6,1,467.0,576.0,1.0,967.0,1,0.3402942189235323,0.0
1178,1178,0.8092295107048086,0.8,0,304.0,690.0,0.0,86.0,1,0.4069154248454002,0.0
1179,1179,-0.301426993372657,-0.3,1,402.0,915.0,1.0,-57.0,1,0.5208056775934244,0.0
1180,1180,-0.10858991759997494,-0.1,1,267.0,922.0,0.0,-229.0,0,0.4031825641972163,0.0
1181,1181,-0.19401049960011085,-0.2,1,287.0,902.0,0.0,-989.0,0,0.4806040830855677,0.0
1182,1182,-0.42527450434652914,-0.4,1,379.0,682.0,1.0,279.0,1,0.45468255118360057,0.0
1183,1183,-0.4009346515939156,-0.4,1,410.0,911.0,1.0,219.0,1,0.4763802322692281,0.0
1184,1184,-0.2253574478987037,-0.2,1,379.0,794.0,1.0,1277.0,1,0.40902387777665244,0.0
1185,1185,-0.4547200887531011,-0.5,1,352.0,840.0,0.0,-402.0,0,0.5570436790715382,0.0
1186,1186,0.9570141131042997,1.0,0,403.0,523.0,0.0,1594.0,1,0.3045553593603856,0.0
1187,1187,0.6816238807771446,0.7,0,369.0,929.0,0.0,842.0,1,0.32774251493284473,0.0
1188,1188,-0.6898385031908221,-0.7,1,447.0,826.0,1.0,417.0,1,0.41473239667052497,0.0
1189,1189,-0.08926484167142701,-0.1,1,475.0,956.0,0.0,3569.0,0,0.31506416506547047,0.0
1190,1190,-0.031614736920359876,-0.0,1,481.0,644.0,0.0,3875.0,0,0.37059383020114367,0.0
1191,1191,-0.20477950072857443,-0.2,1,447.0,931.0,1.0,3622.0,1,0.3149339079697955,0.0
1192,1192,0.44046832426658455,0.4,0,479.0,700.0,0.0,1261.0,1,0.3681203689012514,0.0
1193,1193,0.7245786441862505,0.7,0,488.0,602.0,0.0,200.0,1,0.4085215745548163,0.0
1194,1194,0.5145407850969983,0.5,0,488.0,509.0,0.0,2983.0,1,0.35161942555938774,0.0
1195,1195,0.3701939392972471,0.4,0,287.0,823.0,0.0,-480.0,1,0.5925759093605156,0.0
1196,1196,-0.45325109111517947,-0.5,1,459.0,894.0,1.0,247.0,1,0.40752868319696567,0.0
1197,1197,0.23097840120085467,0.2,0,462.0,907.0,0.0,3631.0,1,0.30003653090300186,0.0
1198,1198,0.7442749718335158,0.7,0,347.0,993.0,0.0,-980.0,1,0.5217197574587891,0.0
1199,1199,-0.19736858950405867,-0.2,1,429.0,829.0,0.0,-428.0,0,0.5722858184924395,0.0
1200,1200,0.49776455042046086,0.5,0,409.0,701.0,0.0,3890.0,1,0.3139014366859017,0.0
1201,1201,0.5841579144506592,0.6,0,453.0,849.0,0.0,-2.0,1,0.4893531169096538,0.0
1202,1202,-0.31870440750571727,-0.3,1,374.0,566.0,1.0,260.0,1,0.51904839151214,0.0
1203,1203,0.04632919065770147,0.0,0,319.0,925.0,0.0,1466.0,1,0.38434164308262875,0.0
1204,1204,0.5973701116731387,0.6,0,394.0,616.0,0.0,710.0,1,0.36518424747135925,0.0
1205,1205,0.05788482035855025,0.1,0,281.0,675.0,0.0,3874.0,1,0.41729911994915525,0.0
1206,1206,0.45298939971819374,0.5,0,354.0,532.0,0.0,4114.0,1,0.32242302732155453,0.0
1207,1207,-0.8305419164496408,-0.8,1,259.0,869.0,1.0,202.0,1,0.37815196139677504,0.0
1208,1208,-0.09971239205731908,-0.1,1,356.0,798.0,0.0,-744.0,0,0.5707620518279111,0.0
1209,1209,0.12561651915512706,0.1,0,387.0,506.0,1.0,-543.0,0,0.5502265674106179,0.0
1210,1210,-0.810178959977035,-0.8,1,253.0,900.0,1.0,867.0,1,0.3111907901680243,0.0
1211,1211,0.7350657426791078,0.7,0,347.0,883.0,0.0,-260.0,1,0.4556050294931484,0.0
1212,1212,-0.8865461270619877,-0.9,1,465.0,882.0,1.0,-1127.0,1,0.5857182762000096,0.0
1213,1213,0.12680015297524938,0.1,0,402.0,918.0,0.0,2000.0,1,0.3994136006934669,0.0
1214,1214,0.3345788256201103,0.3,0,315.0,783.0,0.0,432.0,1,0.43391560302124565,0.0
