,trial,coherence,coherence_bin,correct_side,target_onset,checker_onset,decision,decision_time,correct_decision
0,0,0.8566945750110291,0.9,0,371.0,638.0,0.0,671.0,1
1,1,-0.02854171398511074,-0.0,1,465.0,789.0,1.0,3146.0,1
2,2,-0.2761585165777305,-0.3,1,287.0,809.0,0.0,2014.0,0
3,3,0.4631291368373711,0.5,0,351.0,748.0,0.0,501.0,1
4,4,-0.3024755948355027,-0.3,1,316.0,846.0,1.0,208.0,1
5,5,0.42219603813581363,0.4,0,453.0,664.0,0.0,2353.0,1
6,6,0.24401566275812825,0.2,0,490.0,822.0,0.0,1338.0,1
7,7,0.3657825402228414,0.4,0,377.0,602.0,0.0,1201.0,1
8,8,0.20246009006518162,0.2,0,259.0,679.0,0.0,1892.0,1
9,9,0.06607436930652089,0.1,0,301.0,641.0,1.0,1438.0,0
10,10,-0.14112925630455853,-0.1,1,283.0,550.0,1.0,537.0,1
11,11,-0.6524248054642026,-0.7,1,283.0,518.0,1.0,419.0,1
12,12,0.46774187086113894,0.5,0,377.0,582.0,1.0,471.0,0
13,13,-0.43556315713272453,-0.4,1,409.0,733.0,1.0,798.0,1
14,14,-0.7806575291463289,-0.8,1,432.0,931.0,1.0,277.0,1
15,15,0.6332317846768851,0.6,0,311.0,643.0,0.0,1156.0,1
16,16,0.34704846319290183,0.3,0,427.0,593.0,0.0,570.0,1
17,17,0.7547057273424738,0.8,0,318.0,925.0,0.0,87.0,1
18,18,-0.47142626959425615,-0.5,1,370.0,568.0,1.0,662.0,1
19,19,-0.55935681037017,-0.6,1,402.0,942.0,1.0,436.0,1
20,20,-0.5533500512443781,-0.6,1,439.0,642.0,1.0,409.0,1
21,21,-0.006207386193783249,-0.0,1,280.0,677.0,0.0,1693.0,0
22,22,0.14769654092903473,0.1,0,267.0,653.0,1.0,2790.0,0
23,23,0.19007986068534555,0.2,0,293.0,914.0,0.0,3793.0,1
24,24,-0.3624874770190498,-0.4,1,320.0,707.0,1.0,463.0,1
25,25,-0.3988205982408024,-0.4,1,353.0,525.0,1.0,312.0,1
26,26,-0.8516688495317157,-0.9,1,437.0,527.0,1.0,206.0,1
27,27,0.21126388739712598,0.2,0,414.0,560.0,0.0,386.0,1
28,28,-0.7689321685153323,-0.8,1,357.0,836.0,1.0,387.0,1
29,29,0.33545672925126646,0.3,0,472.0,530.0,0.0,828.0,1
30,30,0.24253490364795272,0.2,0,330.0,976.0,1.0,3694.0,0
31,31,0.17571829220818191,0.2,0,456.0,816.0,1.0,3468.0,0
32,32,-0.250160410151947,-0.3,1,285.0,960.0,1.0,1765.0,1
33,33,0.8965480338439344,0.9,0,294.0,881.0,0.0,435.0,1
34,34,0.6306348632727552,0.6,0,346.0,678.0,0.0,596.0,1
35,35,-0.4702619423666521,-0.5,1,288.0,770.0,1.0,152.0,1
36,36,-0.43080806584620124,-0.4,1,302.0,667.0,1.0,1221.0,1
37,37,0.9187220240200691,0.9,0,427.0,526.0,0.0,867.0,1
38,38,-0.19667527009333452,-0.2,1,464.0,994.0,1.0,1092.0,1
39,39,-0.6733647654683219,-0.7,1,283.0,787.0,1.0,590.0,1
40,40,0.25185531783116155,0.3,0,282.0,974.0,0.0,224.0,1
41,41,0.08404134183822154,0.1,0,353.0,824.0,1.0,3823.0,0
42,42,-0.35795470184441314,-0.4,1,316.0,578.0,1.0,2536.0,1
43,43,-0.9038434650171545,-0.9,1,461.0,704.0,1.0,915.0,1
44,44,0.3474401168390564,0.3,0,484.0,814.0,0.0,602.0,1
45,45,-0.9714612211334961,-1.0,1,435.0,705.0,1.0,480.0,1
46,46,-0.3203771130131441,-0.3,1,293.0,948.0,1.0,969.0,1
47,47,-0.9363705835088083,-0.9,1,457.0,835.0,1.0,198.0,1
48,48,-0.7499856916994283,-0.7,1,299.0,939.0,1.0,132.0,1
49,49,-0.12148649455229532,-0.1,1,490.0,979.0,1.0,2831.0,1
50,50,-0.8991059366278473,-0.9,1,357.0,734.0,1.0,589.0,1
51,51,-0.09245827784555427,-0.1,1,443.0,649.0,1.0,1028.0,1
52,52,0.8039173655703746,0.8,0,498.0,648.0,0.0,114.0,1
53,53,-0.5024083252567582,-0.5,1,458.0,630.0,1.0,1072.0,1
54,54,-0.2528364235138363,-0.3,1,421.0,939.0,1.0,700.0,1
55,55,-0.8852811123104576,-0.9,1,309.0,538.0,1.0,793.0,1
56,56,0.9630442432741837,1.0,0,402.0,596.0,0.0,652.0,1
57,57,-0.42103098636661773,-0.4,1,356.0,563.0,1.0,281.0,1
58,58,0.07150415210101624,0.1,0,395.0,825.0,1.0,3110.0,0
59,59,-0.9890523729404306,-1.0,1,436.0,703.0,1.0,361.0,1
60,60,-0.09449974108698522,-0.1,1,486.0,892.0,1.0,2702.0,1
61,61,0.07878598549743021,0.1,0,465.0,926.0,1.0,3609.0,0
62,62,0.7281875745329247,0.7,0,305.0,826.0,0.0,959.0,1
63,63,0.22814602768396752,0.2,0,478.0,743.0,0.0,529.0,1
64,64,-0.15530384273775844,-0.2,1,490.0,606.0,1.0,3904.0,1
65,65,0.2958923690502753,0.3,0,352.0,528.0,0.0,2800.0,1
66,66,-0.6200063480569482,-0.6,1,281.0,832.0,1.0,497.0,1
67,67,-0.3743316093851625,-0.4,1,266.0,872.0,0.0,2262.0,0
68,68,-0.9632088345777023,-1.0,1,442.0,842.0,1.0,136.0,1
69,69,-0.09553071782659872,-0.1,1,482.0,622.0,1.0,226.0,1
70,70,0.11098793048745459,0.1,0,443.0,573.0,0.0,944.0,1
71,71,0.054087037106028024,0.1,0,357.0,779.0,0.0,1944.0,1
72,72,0.53355483954981,0.5,0,359.0,583.0,0.0,128.0,1
73,73,-0.06976156865825489,-0.1,1,275.0,862.0,1.0,753.0,1
74,74,0.8941045532890004,0.9,0,415.0,805.0,0.0,160.0,1
75,75,-0.8072483448588648,-0.8,1,380.0,941.0,1.0,249.0,1
76,76,0.7684062402145722,0.8,0,420.0,936.0,0.0,764.0,1
77,77,-0.3456594990722113,-0.3,1,379.0,756.0,1.0,1255.0,1
78,78,-0.13834657410406104,-0.1,1,273.0,877.0,1.0,2420.0,1
79,79,-0.8049534189370935,-0.8,1,311.0,791.0,1.0,418.0,1
80,80,-0.9064967598740639,-0.9,1,353.0,662.0,1.0,235.0,1
81,81,-0.9745053754004145,-1.0,1,380.0,974.0,1.0,316.0,1
82,82,-0.7245925488489011,-0.7,1,453.0,721.0,1.0,66.0,1
83,83,-0.03048859235652901,-0.0,1,451.0,943.0,1.0,1876.0,1
84,84,-0.3490815875231392,-0.3,1,454.0,800.0,1.0,476.0,1
85,85,-0.7560161081731633,-0.8,1,297.0,560.0,1.0,123.0,1
86,86,-0.4409166405186913,-0.4,1,369.0,816.0,1.0,1425.0,1
87,87,-0.38962549641503075,-0.4,1,392.0,596.0,1.0,502.0,1
88,88,0.8939796685807146,0.9,0,268.0,701.0,0.0,741.0,1
89,89,-0.48654013935851403,-0.5,1,429.0,671.0,0.0,670.0,0
90,90,-0.680005382440185,-0.7,1,264.0,521.0,1.0,75.0,1
91,91,0.4340382384490742,0.4,0,333.0,641.0,0.0,366.0,1
92,92,0.9375146715028306,0.9,0,442.0,627.0,0.0,151.0,1
93,93,-0.6528602610741343,-0.7,1,294.0,586.0,1.0,710.0,1
94,94,0.1471215910960051,0.1,0,268.0,791.0,0.0,2301.0,1
95,95,0.12050134048160954,0.1,0,299.0,590.0,0.0,951.0,1
96,96,0.9876726936935594,1.0,0,436.0,922.0,0.0,262.0,1
97,97,-0.11996419954390292,-0.1,1,488.0,899.0,1.0,2793.0,1
98,98,0.3415815871851522,0.3,0,314.0,646.0,0.0,1060.0,1
99,99,-0.7840223815005756,-0.8,1,424.0,530.0,1.0,276.0,1
100,100,-0.04687555752178185,-0.0,1,329.0,587.0,0.0,4084.0,0
101,101,-0.8831704134094178,-0.9,1,360.0,792.0,1.0,308.0,1
102,102,0.2673434904969274,0.3,0,264.0,749.0,0.0,3757.0,1
103,103,-0.5594499885943744,-0.6,1,272.0,951.0,1.0,1187.0,1
104,104,0.7296824830545487,0.7,0,486.0,520.0,0.0,584.0,1
105,105,0.13973397338671045,0.1,0,417.0,696.0,0.0,3887.0,1
106,106,-0.79786218309985,-0.8,1,417.0,733.0,1.0,470.0,1
107,107,0.3869628149345119,0.4,0,413.0,545.0,0.0,332.0,1
108,108,-0.6947460825051743,-0.7,1,398.0,627.0,1.0,675.0,1
109,109,0.18128512723715495,0.2,0,295.0,583.0,0.0,262.0,1
110,110,0.7867847040755638,0.8,0,431.0,913.0,0.0,396.0,1
111,111,-0.27370752255971986,-0.3,1,451.0,550.0,1.0,489.0,1
112,112,-0.6382200523033601,-0.6,1,339.0,688.0,1.0,843.0,1
113,113,-0.8917245015947586,-0.9,1,377.0,959.0,1.0,64.0,1
114,114,0.06752731111103061,0.1,0,280.0,685.0,0.0,3355.0,1
115,115,-0.640867510446913,-0.6,1,311.0,796.0,1.0,203.0,1
116,116,0.6381530278066798,0.6,0,297.0,590.0,0.0,1343.0,1
117,117,0.7417783924172916,0.7,0,270.0,833.0,0.0,477.0,1
118,118,0.7359029375339348,0.7,0,307.0,544.0,0.0,369.0,1
119,119,0.9776401504040655,1.0,0,469.0,954.0,0.0,467.0,1
120,120,-0.03505285942148251,-0.0,1,430.0,507.0,1.0,263.0,1
121,121,0.03965755567523366,0.0,0,370.0,811.0,0.0,179.0,1
122,122,0.08629830717158016,0.1,0,377.0,799.0,1.0,1664.0,0
123,123,-0.8459595688830233,-0.8,1,436.0,872.0,1.0,172.0,1
124,124,0.592614685619733,0.6,0,254.0,524.0,0.0,462.0,1
125,125,-0.7317772848887054,-0.7,1,459.0,905.0,1.0,526.0,1
126,126,-0.45701811277488,-0.5,1,278.0,838.0,1.0,494.0,1
127,127,0.6716741090427616,0.7,0,497.0,956.0,0.0,167.0,1
128,128,0.6461284627643042,0.6,0,258.0,983.0,0.0,1169.0,1
129,129,-0.6925115660023515,-0.7,1,295.0,943.0,1.0,1532.0,1
130,130,0.5161744986113193,0.5,0,253.0,721.0,0.0,3146.0,1
131,131,0.45369407303006426,0.5,0,294.0,764.0,0.0,952.0,1
132,132,-0.349965024359308,-0.3,1,313.0,805.0,1.0,652.0,1
133,133,-0.9553642450578661,-1.0,1,302.0,868.0,1.0,60.0,1
134,134,0.27116577663930785,0.3,0,282.0,986.0,0.0,222.0,1
135,135,-0.9402673538288542,-0.9,1,403.0,652.0,1.0,655.0,1
136,136,-0.9734510446245643,-1.0,1,314.0,704.0,1.0,762.0,1
137,137,0.6571707225300127,0.7,0,258.0,992.0,0.0,780.0,1
138,138,0.3501973987607083,0.4,0,252.0,649.0,0.0,1759.0,1
139,139,-0.25808640226062285,-0.3,1,459.0,542.0,1.0,1519.0,1
140,140,0.41179155621272856,0.4,0,299.0,702.0,0.0,1159.0,1
141,141,0.8646894026556851,0.9,0,338.0,841.0,0.0,461.0,1
142,142,0.948391064869496,0.9,0,431.0,846.0,0.0,223.0,1
143,143,-0.6361195493240777,-0.6,1,268.0,943.0,1.0,429.0,1
144,144,0.8812701102673652,0.9,0,312.0,934.0,0.0,634.0,1
145,145,0.0874061395813217,0.1,0,319.0,910.0,1.0,661.0,0
146,146,0.3721383500207831,0.4,0,373.0,900.0,0.0,517.0,1
147,147,-0.9931543276104671,-1.0,1,368.0,999.0,1.0,653.0,1
148,148,0.2836644989557753,0.3,0,292.0,555.0,0.0,1343.0,1
149,149,0.18836813388060603,0.2,0,281.0,782.0,0.0,597.0,1
150,150,-0.10818353207557796,-0.1,1,458.0,700.0,1.0,3432.0,1
151,151,-0.059960064460666374,-0.1,1,455.0,552.0,0.0,3953.0,0
152,152,0.07516879929529074,0.1,0,270.0,809.0,0.0,3921.0,1
153,153,0.6993305537686432,0.7,0,291.0,759.0,0.0,730.0,1
154,154,0.2006239183979701,0.2,0,286.0,832.0,0.0,2992.0,1
155,155,-0.8984412481193882,-0.9,1,427.0,683.0,1.0,400.0,1
156,156,0.90810247698325,0.9,0,355.0,796.0,0.0,399.0,1
157,157,-0.5912849930981259,-0.6,1,453.0,550.0,1.0,587.0,1
158,158,-0.987595573337468,-1.0,1,407.0,836.0,1.0,127.0,1
159,159,0.13460163402527225,0.1,0,411.0,876.0,0.0,1453.0,1
160,160,-0.6150107606892161,-0.6,1,416.0,515.0,1.0,539.0,1
161,161,0.5877610398755062,0.6,0,338.0,980.0,0.0,1062.0,1
162,162,-0.020842049551433872,-0.0,1,314.0,897.0,1.0,679.0,1
163,163,0.6179301307022647,0.6,0,320.0,896.0,0.0,824.0,1
164,164,0.5436679294965268,0.5,0,278.0,811.0,0.0,41.0,1
165,165,-0.12038100689987519,-0.1,1,304.0,887.0,1.0,479.0,1
166,166,0.030460173943717805,0.0,0,458.0,737.0,0.0,345.0,1
167,167,-0.5982743006429545,-0.6,1,382.0,515.0,1.0,473.0,1
168,168,-0.477088698269448,-0.5,1,306.0,510.0,1.0,1914.0,1
169,169,0.8919215495469648,0.9,0,261.0,586.0,0.0,323.0,1
170,170,-0.6074700592306297,-0.6,1,472.0,816.0,1.0,422.0,1
171,171,0.5063246527880625,0.5,0,279.0,703.0,0.0,498.0,1
172,172,0.5084593886810407,0.5,0,375.0,828.0,0.0,577.0,1
173,173,-0.26206307903292303,-0.3,1,456.0,523.0,1.0,661.0,1
174,174,0.21395165572523722,0.2,0,326.0,743.0,0.0,1601.0,1
175,175,-0.1222018217343055,-0.1,1,384.0,753.0,1.0,2373.0,1
176,176,-0.40248086369995506,-0.4,1,377.0,693.0,1.0,1040.0,1
177,177,0.11708300690095474,0.1,0,415.0,803.0,0.0,1462.0,1
178,178,-0.6281536483161478,-0.6,1,400.0,635.0,1.0,265.0,1
179,179,0.7851834756906371,0.8,0,269.0,673.0,0.0,478.0,1
180,180,0.5821159996874874,0.6,0,418.0,883.0,1.0,39.0,0
181,181,-0.5771835846357736,-0.6,1,324.0,999.0,1.0,527.0,1
182,182,0.4905589294749164,0.5,0,252.0,834.0,0.0,314.0,1
183,183,-0.6060679263424333,-0.6,1,357.0,606.0,1.0,487.0,1
184,184,0.6948208813261092,0.7,0,306.0,821.0,0.0,243.0,1
185,185,-0.3284570792382886,-0.3,1,414.0,616.0,1.0,430.0,1
186,186,-0.8505813330029159,-0.9,1,302.0,692.0,1.0,126.0,1
187,187,-0.0817553383523335,-0.1,1,420.0,990.0,0.0,730.0,0
188,188,0.7060762873335229,0.7,0,357.0,826.0,0.0,1327.0,1
189,189,-0.31328859571098366,-0.3,1,433.0,960.0,1.0,2137.0,1
190,190,-0.5873318923554365,-0.6,1,330.0,707.0,1.0,123.0,1
191,191,0.3309238945323534,0.3,0,466.0,724.0,1.0,1560.0,0
192,192,0.8962251580808416,0.9,0,252.0,711.0,0.0,397.0,1
193,193,0.07948560685552031,0.1,0,496.0,897.0,1.0,1587.0,0
194,194,0.4625494250915827,0.5,0,318.0,927.0,0.0,1735.0,1
195,195,-0.41892547548444514,-0.4,1,374.0,756.0,1.0,430.0,1
196,196,-0.5902936515268158,-0.6,1,412.0,528.0,1.0,200.0,1
197,197,-0.6324370766959395,-0.6,1,403.0,663.0,1.0,114.0,1
198,198,-0.06831146064513272,-0.1,1,280.0,574.0,0.0,1716.0,0
199,199,0.8469244244145575,0.8,0,488.0,905.0,0.0,1357.0,1
200,200,0.6141841022223575,0.6,0,351.0,903.0,0.0,1246.0,1
201,201,-0.5157926169597469,-0.5,1,496.0,595.0,1.0,3789.0,1
202,202,0.5704542067720049,0.6,0,366.0,528.0,0.0,326.0,1
203,203,0.008237488047706742,0.0,0,273.0,610.0,1.0,297.0,0
204,204,-0.42990692633898986,-0.4,1,342.0,742.0,1.0,76.0,1
205,205,-0.2921985426639646,-0.3,1,430.0,575.0,1.0,2065.0,1
206,206,0.9219790609755067,0.9,0,290.0,731.0,0.0,219.0,1
207,207,-0.7332698126048418,-0.7,1,308.0,948.0,1.0,564.0,1
208,208,0.5723900227514529,0.6,0,427.0,739.0,0.0,394.0,1
209,209,-0.3548085683731954,-0.4,1,293.0,823.0,1.0,314.0,1
210,210,0.37811021242207943,0.4,0,451.0,623.0,0.0,106.0,1
211,211,-0.09587925168319544,-0.1,1,481.0,583.0,1.0,3936.0,1
212,212,-0.41723052496064295,-0.4,1,417.0,968.0,1.0,835.0,1
213,213,0.3133265814872661,0.3,0,439.0,547.0,0.0,994.0,1
214,214,-0.11385724790574758,-0.1,1,413.0,558.0,1.0,479.0,1
215,215,0.10754656078487823,0.1,0,350.0,976.0,1.0,984.0,0
216,216,0.18683629793644885,0.2,0,475.0,958.0,0.0,1747.0,1
217,217,0.53208671763012,0.5,0,495.0,501.0,0.0,2574.0,1
218,218,0.12901350343613505,0.1,0,400.0,818.0,0.0,642.0,1
219,219,-0.7094930285621683,-0.7,1,313.0,994.0,1.0,1083.0,1
220,220,-0.9887792530494546,-1.0,1,412.0,830.0,1.0,168.0,1
221,221,-0.008641285462522852,-0.0,1,357.0,996.0,0.0,817.0,0
222,222,-0.7691529738747573,-0.8,1,350.0,648.0,1.0,822.0,1
223,223,0.5673002322957426,0.6,0,384.0,512.0,1.0,144.0,0
224,224,0.42146750146503087,0.4,0,318.0,998.0,0.0,2074.0,1
225,225,0.8609232084604126,0.9,0,474.0,626.0,0.0,480.0,1
226,226,-0.6553681048418758,-0.7,1,358.0,801.0,1.0,621.0,1
227,227,-0.08786669563967431,-0.1,1,498.0,982.0,1.0,1250.0,1
228,228,-0.4409036246119775,-0.4,1,271.0,642.0,1.0,57.0,1
229,229,0.09483183946356499,0.1,0,372.0,702.0,0.0,856.0,1
230,230,-0.09493399780744105,-0.1,1,298.0,790.0,1.0,3612.0,1
231,231,-0.09738605842906067,-0.1,1,410.0,668.0,0.0,312.0,0
232,232,-0.984924965065048,-1.0,1,335.0,892.0,1.0,393.0,1
233,233,-0.10152661501207638,-0.1,1,379.0,554.0,1.0,677.0,1
234,234,-0.02784275751639842,-0.0,1,357.0,680.0,0.0,323.0,0
235,235,0.3237180156165467,0.3,0,424.0,907.0,0.0,449.0,1
236,236,-0.9035035737211494,-0.9,1,425.0,581.0,1.0,364.0,1
237,237,-0.12364473264427067,-0.1,1,256.0,515.0,0.0,2269.0,0
238,238,0.9027008934401637,0.9,0,324.0,687.0,0.0,579.0,1
239,239,-0.5412855587965024,-0.5,1,471.0,729.0,1.0,980.0,1
240,240,-0.3816911672433687,-0.4,1,395.0,700.0,1.0,1215.0,1
241,241,0.2668857422909505,0.3,0,358.0,788.0,1.0,1884.0,0
242,242,0.8703022600895274,0.9,0,273.0,941.0,0.0,716.0,1
243,243,-0.31385066546719287,-0.3,1,304.0,958.0,1.0,1538.0,1
244,244,0.1033651248037275,0.1,0,274.0,736.0,0.0,2690.0,1
245,245,0.429192497049496,0.4,0,433.0,550.0,0.0,2017.0,1
246,246,-0.713765160086903,-0.7,1,355.0,649.0,1.0,486.0,1
247,247,0.724505940897102,0.7,0,261.0,686.0,0.0,503.0,1
248,248,0.5578716157890233,0.6,0,370.0,820.0,0.0,880.0,1
249,249,0.017835922156975492,0.0,0,284.0,850.0,1.0,3866.0,0
250,250,0.7472163597606312,0.7,0,350.0,556.0,0.0,1024.0,1
251,251,-0.6456428379047066,-0.6,1,438.0,684.0,1.0,1468.0,1
252,252,-0.7647122658529568,-0.8,1,466.0,579.0,1.0,595.0,1
253,253,0.8462345440804036,0.8,0,476.0,714.0,0.0,460.0,1
254,254,0.004906890442060385,0.0,0,328.0,967.0,1.0,1285.0,0
255,255,0.5245419673727554,0.5,0,432.0,976.0,0.0,192.0,1
256,256,-0.50505429336186,-0.5,1,260.0,977.0,1.0,233.0,1
257,257,0.0649465294213365,0.1,0,386.0,847.0,1.0,3767.0,0
258,258,0.8013872407540068,0.8,0,261.0,606.0,0.0,463.0,1
259,259,-0.545988089154591,-0.5,1,340.0,994.0,1.0,806.0,1
260,260,0.6989931122793065,0.7,0,461.0,796.0,0.0,353.0,1
261,261,0.4825811488265228,0.5,0,317.0,894.0,0.0,539.0,1
262,262,-0.9135509325877327,-0.9,1,339.0,753.0,1.0,308.0,1
263,263,-0.6842140022162317,-0.7,1,370.0,672.0,1.0,448.0,1
264,264,0.7848002588527032,0.8,0,429.0,731.0,0.0,830.0,1
265,265,0.6108669660066726,0.6,0,266.0,908.0,0.0,486.0,1
266,266,-0.3880076115534097,-0.4,1,374.0,856.0,1.0,650.0,1
267,267,0.208930486404042,0.2,0,467.0,582.0,1.0,831.0,0
268,268,0.5311328490004206,0.5,0,490.0,555.0,0.0,285.0,1
269,269,-0.1683904783614607,-0.2,1,439.0,564.0,1.0,2047.0,1
270,270,0.022854643726858415,0.0,0,437.0,722.0,1.0,3841.0,0
271,271,0.5280153323086851,0.5,0,254.0,991.0,0.0,355.0,1
272,272,0.7775957930560013,0.8,0,360.0,905.0,0.0,735.0,1
273,273,0.9923277508061741,1.0,0,418.0,566.0,0.0,186.0,1
274,274,0.3649915417330001,0.4,0,326.0,625.0,0.0,2089.0,1
275,275,0.5262786169779177,0.5,0,366.0,780.0,0.0,244.0,1
276,276,-0.6917009139060788,-0.7,1,420.0,897.0,1.0,193.0,1
277,277,-0.9842129438988325,-1.0,1,341.0,596.0,1.0,333.0,1
278,278,0.6512580356416475,0.7,0,435.0,879.0,0.0,1096.0,1
279,279,0.35128760140390103,0.4,0,489.0,862.0,0.0,859.0,1
280,280,-0.34168577583547743,-0.3,1,355.0,780.0,1.0,1495.0,1
281,281,0.33954187763632593,0.3,0,437.0,634.0,0.0,229.0,1
282,282,-0.05816245743611681,-0.1,1,332.0,544.0,0.0,4124.0,0
283,283,-0.5382390377162884,-0.5,1,498.0,887.0,1.0,665.0,1
284,284,0.6522374861164446,0.7,0,384.0,998.0,0.0,558.0,1
285,285,0.8430074557650189,0.8,0,320.0,503.0,0.0,367.0,1
286,286,-0.23922036850275563,-0.2,1,370.0,752.0,1.0,2258.0,1
287,287,-0.8458204937740661,-0.8,1,276.0,984.0,1.0,430.0,1
288,288,0.7103397985989124,0.7,0,351.0,728.0,0.0,221.0,1
289,289,0.4105936880725676,0.4,0,347.0,961.0,0.0,752.0,1
290,290,0.3846915595224816,0.4,0,260.0,866.0,0.0,604.0,1
291,291,-0.7275142626143465,-0.7,1,325.0,927.0,1.0,208.0,1
292,292,0.3210354382238565,0.3,0,302.0,571.0,0.0,377.0,1
293,293,-0.8174766063716101,-0.8,1,492.0,822.0,1.0,246.0,1
294,294,-0.05122669126383883,-0.1,1,401.0,557.0,1.0,4042.0,1
295,295,-0.5764774364603056,-0.6,1,464.0,734.0,1.0,142.0,1
296,296,0.2299017074958043,0.2,0,311.0,817.0,1.0,182.0,0
297,297,-0.8550603680451863,-0.9,1,443.0,922.0,1.0,2275.0,1
298,298,-0.8914549634009377,-0.9,1,445.0,565.0,1.0,330.0,1
299,299,-0.703302183751755,-0.7,1,288.0,775.0,1.0,497.0,1
300,300,0.33107566143929223,0.3,0,423.0,942.0,0.0,835.0,1
301,301,0.9694733565348235,1.0,0,374.0,616.0,0.0,340.0,1
302,302,-0.8431811672549707,-0.8,1,443.0,797.0,1.0,260.0,1
303,303,-0.762937010604801,-0.8,1,387.0,511.0,1.0,652.0,1
304,304,0.5196107036774191,0.5,0,304.0,857.0,0.0,759.0,1
305,305,0.8160942299428424,0.8,0,285.0,607.0,0.0,288.0,1
306,306,0.17227575778390425,0.2,0,391.0,549.0,0.0,1430.0,1
307,307,-0.011832046035413768,-0.0,1,259.0,631.0,1.0,930.0,1
308,308,-0.3513211958931004,-0.4,1,327.0,768.0,1.0,865.0,1
309,309,0.8105570965777893,0.8,0,400.0,601.0,0.0,1109.0,1
310,310,0.5546623642044504,0.6,0,283.0,683.0,0.0,824.0,1
311,311,-0.024804608073213164,-0.0,1,356.0,976.0,1.0,968.0,1
312,312,0.3676185786147004,0.4,0,253.0,529.0,0.0,358.0,1
313,313,-0.18134417361499922,-0.2,1,475.0,925.0,1.0,530.0,1
314,314,0.28532721395159566,0.3,0,289.0,569.0,1.0,2212.0,0
315,315,0.15824142658324614,0.2,0,281.0,572.0,1.0,117.0,0
316,316,-0.48839619844006155,-0.5,1,371.0,941.0,1.0,1538.0,1
317,317,-0.1338996263364487,-0.1,1,430.0,855.0,1.0,2645.0,1
318,318,-0.14842037832177724,-0.1,1,462.0,932.0,1.0,946.0,1
319,319,0.23044080237448905,0.2,0,365.0,640.0,0.0,3245.0,1
320,320,0.9573060631554762,1.0,0,323.0,967.0,0.0,490.0,1
321,321,-0.3144544964556044,-0.3,1,459.0,976.0,1.0,645.0,1
322,322,0.6228268786997528,0.6,0,250.0,754.0,0.0,1636.0,1
323,323,0.7630205591733883,0.8,0,414.0,779.0,0.0,1337.0,1
324,324,0.9847788431019522,1.0,0,363.0,935.0,0.0,242.0,1
325,325,-0.8206286802950618,-0.8,1,359.0,618.0,1.0,213.0,1
326,326,0.9253824853026498,0.9,0,317.0,571.0,0.0,382.0,1
327,327,0.017143114574920126,0.0,0,351.0,979.0,0.0,1570.0,1
328,328,-0.5193475260533622,-0.5,1,290.0,694.0,1.0,456.0,1
329,329,-0.7649921272975029,-0.8,1,257.0,701.0,1.0,372.0,1
330,330,-0.24918725026834432,-0.2,1,253.0,978.0,1.0,479.0,1
331,331,-0.7013676996662757,-0.7,1,341.0,570.0,1.0,189.0,1
332,332,0.9712076384768276,1.0,0,274.0,560.0,0.0,1196.0,1
333,333,-0.49277089783057537,-0.5,1,414.0,703.0,1.0,183.0,1
334,334,0.5197142809115056,0.5,0,286.0,868.0,0.0,796.0,1
335,335,0.09100138971119787,0.1,0,351.0,576.0,0.0,1953.0,1
336,336,-0.2109274161596697,-0.2,1,485.0,908.0,1.0,1237.0,1
337,337,-0.04279424705442603,-0.0,1,428.0,855.0,1.0,3387.0,1
338,338,-0.9249166434833846,-0.9,1,310.0,911.0,1.0,219.0,1
339,339,0.8373942507952443,0.8,0,357.0,746.0,0.0,1677.0,1
340,340,0.5385846973952519,0.5,0,428.0,830.0,0.0,312.0,1
341,341,0.5119606563898242,0.5,0,437.0,963.0,0.0,1340.0,1
342,342,-0.22141665351678075,-0.2,1,356.0,673.0,1.0,301.0,1
343,343,-0.8532941339547668,-0.9,1,314.0,643.0,1.0,433.0,1
344,344,0.4592296254912398,0.5,0,327.0,586.0,0.0,3547.0,1
345,345,0.07310497750623646,0.1,0,467.0,902.0,1.0,1571.0,0
346,346,0.925509569034076,0.9,0,337.0,739.0,0.0,44.0,1
347,347,0.6015957101429421,0.6,0,298.0,586.0,0.0,306.0,1
348,348,-0.9760444519357898,-1.0,1,396.0,716.0,1.0,188.0,1
349,349,-0.37956567148775067,-0.4,1,393.0,882.0,1.0,1215.0,1
350,350,-0.0611897402365682,-0.1,1,489.0,618.0,1.0,1343.0,1
351,351,-0.5051632605285314,-0.5,1,446.0,892.0,1.0,272.0,1
352,352,0.12573102853778395,0.1,0,258.0,680.0,1.0,4062.0,0
353,353,0.003980073403216933,0.0,0,279.0,504.0,1.0,387.0,0
354,354,0.28420491637812595,0.3,0,481.0,570.0,0.0,1709.0,1
355,355,-0.863826895079324,-0.9,1,469.0,734.0,1.0,357.0,1
356,356,0.4481831004441321,0.4,0,258.0,802.0,0.0,1600.0,1
357,357,-0.2889191441650367,-0.3,1,347.0,786.0,1.0,1267.0,1
358,358,0.5731162903444973,0.6,0,344.0,530.0,0.0,1676.0,1
359,359,-0.7599233435738535,-0.8,1,251.0,911.0,1.0,138.0,1
360,360,0.8707363788642706,0.9,0,338.0,919.0,0.0,573.0,1
361,361,0.8408836915253624,0.8,0,288.0,921.0,0.0,1621.0,1
362,362,0.9360015799064891,0.9,0,335.0,805.0,0.0,440.0,1
363,363,-0.5243797072818548,-0.5,1,418.0,761.0,1.0,261.0,1
364,364,0.9485162588278966,0.9,0,271.0,979.0,0.0,440.0,1
365,365,-0.4808902899083678,-0.5,1,348.0,674.0,1.0,468.0,1
366,366,-0.9916517956958759,-1.0,1,369.0,502.0,1.0,209.0,1
367,367,0.05059841501040463,0.1,0,426.0,840.0,0.0,3734.0,1
368,368,-0.7706394380668597,-0.8,1,359.0,640.0,1.0,371.0,1
369,369,0.7186311236113065,0.7,0,257.0,641.0,0.0,522.0,1
370,370,0.10118447156372157,0.1,0,333.0,569.0,0.0,4098.0,1
371,371,0.497594644622255,0.5,0,343.0,901.0,0.0,1166.0,1
372,372,-0.3806774423324131,-0.4,1,413.0,902.0,1.0,275.0,1
373,373,0.6184583298895532,0.6,0,309.0,585.0,0.0,316.0,1
374,374,0.6423221224623363,0.6,0,277.0,562.0,0.0,801.0,1
375,375,0.20776481808162028,0.2,0,356.0,535.0,1.0,599.0,0
376,376,-0.19109108498096972,-0.2,1,455.0,908.0,1.0,1087.0,1
377,377,-0.43507043002478984,-0.4,1,354.0,588.0,1.0,768.0,1
378,378,-0.6202525978387705,-0.6,1,477.0,694.0,1.0,69.0,1
379,379,-0.05167011402945465,-0.1,1,317.0,512.0,1.0,1021.0,1
380,380,-0.565442903301433,-0.6,1,317.0,846.0,1.0,537.0,1
381,381,0.4564584860992422,0.5,0,308.0,855.0,0.0,697.0,1
382,382,-0.506599744857759,-0.5,1,256.0,949.0,1.0,1115.0,1
383,383,-0.030157853145408753,-0.0,1,286.0,528.0,0.0,436.0,0
384,384,-0.23178526446854097,-0.2,1,307.0,834.0,1.0,679.0,1
385,385,0.7476081318506425,0.7,0,315.0,520.0,0.0,965.0,1
386,386,0.5029000658393534,0.5,0,473.0,756.0,0.0,651.0,1
387,387,-0.5087140887871946,-0.5,1,278.0,509.0,1.0,1763.0,1
388,388,-0.6976733252758913,-0.7,1,259.0,962.0,1.0,349.0,1
389,389,-0.3796006124879945,-0.4,1,302.0,890.0,1.0,828.0,1
390,390,-0.854746381015014,-0.9,1,406.0,970.0,1.0,334.0,1
391,391,0.10515584978616443,0.1,0,260.0,904.0,0.0,3836.0,1
392,392,0.8391417829830135,0.8,0,403.0,899.0,0.0,288.0,1
393,393,0.7371157830277775,0.7,0,440.0,768.0,0.0,222.0,1
394,394,0.31381879072546504,0.3,0,321.0,694.0,0.0,3795.0,1
395,395,0.08095969640485423,0.1,0,315.0,770.0,0.0,1735.0,1
396,396,0.005017425556358868,0.0,0,282.0,800.0,1.0,978.0,0
397,397,0.9760862002256774,1.0,0,288.0,562.0,0.0,530.0,1
398,398,0.8613135418214697,0.9,0,366.0,540.0,0.0,404.0,1
399,399,0.4266437425124172,0.4,0,334.0,822.0,0.0,504.0,1
400,400,-0.21509703535300684,-0.2,1,393.0,988.0,0.0,239.0,0
401,401,-0.060149927600269715,-0.1,1,384.0,770.0,1.0,1356.0,1
402,402,-0.5318775344696542,-0.5,1,397.0,670.0,1.0,1223.0,1
403,403,-0.3812775787371687,-0.4,1,282.0,657.0,1.0,3111.0,1
404,404,0.48434775485217596,0.5,0,392.0,666.0,0.0,2512.0,1
405,405,-0.9738398996438926,-1.0,1,481.0,867.0,1.0,182.0,1
406,406,-0.553903301886665,-0.6,1,300.0,635.0,1.0,405.0,1
407,407,-0.5536386921084961,-0.6,1,276.0,989.0,1.0,255.0,1
408,408,0.5466848787044658,0.5,0,484.0,926.0,0.0,130.0,1
409,409,0.9966141866217113,1.0,0,359.0,895.0,0.0,576.0,1
410,410,0.7243458542391896,0.7,0,287.0,603.0,0.0,1010.0,1
411,411,-0.8153003264711798,-0.8,1,392.0,815.0,1.0,453.0,1
412,412,-0.45124605622646774,-0.5,1,271.0,678.0,1.0,561.0,1
413,413,0.546652221876704,0.5,0,367.0,586.0,0.0,1247.0,1
414,414,-0.6324051831426407,-0.6,1,388.0,769.0,1.0,163.0,1
415,415,-0.9925573658732858,-1.0,1,259.0,654.0,1.0,577.0,1
416,416,-0.8949770959463388,-0.9,1,448.0,839.0,1.0,663.0,1
417,417,0.3248190281337078,0.3,0,409.0,695.0,0.0,1746.0,1
418,418,0.0005736108361080738,0.0,0,302.0,869.0,1.0,949.0,0
419,419,0.2855868571502149,0.3,0,494.0,786.0,0.0,280.0,1
420,420,-0.004860059376961212,-0.0,1,443.0,817.0,0.0,3740.0,0
421,421,-0.1711742159140348,-0.2,1,282.0,938.0,1.0,890.0,1
422,422,-0.6591821327253311,-0.7,1,441.0,731.0,1.0,168.0,1
423,423,0.40630372437262574,0.4,0,310.0,631.0,0.0,3439.0,1
424,424,-0.6024703786634038,-0.6,1,315.0,507.0,1.0,1768.0,1
425,425,-0.1882086683816131,-0.2,1,283.0,788.0,1.0,2249.0,1
426,426,0.5678273422818312,0.6,0,433.0,982.0,0.0,835.0,1
427,427,0.8454213983024073,0.8,0,283.0,704.0,0.0,383.0,1
428,428,0.44756076153818425,0.4,0,411.0,633.0,0.0,356.0,1
429,429,-0.006055160363762635,-0.0,1,366.0,580.0,1.0,714.0,1
430,430,-0.34457100992506584,-0.3,1,429.0,645.0,1.0,816.0,1
431,431,0.39776173756305,0.4,0,476.0,515.0,0.0,2469.0,1
432,432,-0.603166101053433,-0.6,1,321.0,901.0,1.0,468.0,1
433,433,-0.6240515400285316,-0.6,1,410.0,501.0,1.0,1179.0,1
434,434,0.44557431395498703,0.4,0,391.0,679.0,0.0,1350.0,1
435,435,-0.580663547711959,-0.6,1,496.0,649.0,1.0,345.0,1
436,436,-0.4191506590443568,-0.4,1,350.0,706.0,1.0,3284.0,1
437,437,0.13161155589458917,0.1,0,293.0,997.0,0.0,910.0,1
438,438,-0.9395790382092486,-0.9,1,423.0,824.0,1.0,153.0,1
439,439,-0.3887216724078739,-0.4,1,313.0,631.0,1.0,706.0,1
440,440,0.8518468571116469,0.9,0,430.0,667.0,0.0,943.0,1
441,441,-0.910388390651022,-0.9,1,405.0,908.0,1.0,177.0,1
442,442,-0.25657832826268834,-0.3,1,333.0,971.0,1.0,1816.0,1
443,443,-0.5665154484066592,-0.6,1,380.0,746.0,1.0,794.0,1
444,444,-0.2828064300456701,-0.3,1,428.0,851.0,1.0,1811.0,1
445,445,0.32055007984326256,0.3,0,479.0,815.0,0.0,196.0,1
446,446,-0.9218703782429081,-0.9,1,271.0,871.0,1.0,428.0,1
447,447,0.4543954175526399,0.5,0,394.0,865.0,0.0,1471.0,1
448,448,0.38751592517045297,0.4,0,301.0,734.0,0.0,1165.0,1
449,449,-0.9185225201951299,-0.9,1,345.0,760.0,1.0,885.0,1
450,450,0.7887182902154501,0.8,0,275.0,697.0,0.0,398.0,1
451,451,0.4858937117454909,0.5,0,311.0,673.0,0.0,996.0,1
452,452,0.8764594272170716,0.9,0,484.0,643.0,0.0,373.0,1
453,453,0.6364453611324943,0.6,0,290.0,794.0,0.0,166.0,1
454,454,-0.8561504972721281,-0.9,1,345.0,887.0,1.0,158.0,1
455,455,0.7983362513050645,0.8,0,280.0,753.0,0.0,847.0,1
456,456,-0.5606407430651101,-0.6,1,452.0,847.0,1.0,581.0,1
457,457,0.8037301576528939,0.8,0,405.0,910.0,0.0,265.0,1
458,458,0.31821072006726725,0.3,0,263.0,858.0,1.0,1599.0,0
459,459,-0.5605254540447868,-0.6,1,305.0,702.0,1.0,283.0,1
460,460,-0.36813836068991557,-0.4,1,466.0,580.0,1.0,634.0,1
461,461,0.8943954070506988,0.9,0,440.0,767.0,0.0,173.0,1
462,462,-0.6244523929708665,-0.6,1,448.0,748.0,1.0,644.0,1
463,463,0.9109690455594934,0.9,0,487.0,849.0,0.0,1344.0,1
464,464,-0.1807100923114331,-0.2,1,461.0,932.0,0.0,1527.0,0
465,465,0.4400868914064544,0.4,0,481.0,804.0,0.0,965.0,1
466,466,0.8745796021414409,0.9,0,288.0,675.0,0.0,567.0,1
467,467,0.7932925443178989,0.8,0,304.0,845.0,0.0,711.0,1
468,468,-0.9438044542295412,-0.9,1,342.0,515.0,1.0,233.0,1
469,469,0.2702094833708888,0.3,0,444.0,882.0,1.0,2174.0,0
470,470,0.38204165257089784,0.4,0,255.0,610.0,0.0,725.0,1
471,471,0.8058655607259093,0.8,0,261.0,714.0,0.0,1555.0,1
472,472,-0.8305922654003921,-0.8,1,438.0,781.0,1.0,871.0,1
473,473,0.31289930851127035,0.3,0,274.0,726.0,0.0,1630.0,1
474,474,0.40693369809968316,0.4,0,421.0,823.0,0.0,3596.0,1
475,475,-0.821062017300346,-0.8,1,387.0,785.0,1.0,968.0,1
476,476,-0.2277831065671474,-0.2,1,480.0,700.0,1.0,580.0,1
477,477,0.1598351965524356,0.2,0,493.0,766.0,1.0,3741.0,0
478,478,0.19143358324282178,0.2,0,410.0,573.0,0.0,97.0,1
479,479,-0.6968888179334891,-0.7,1,293.0,590.0,1.0,327.0,1
480,480,0.9432706511612987,0.9,0,350.0,525.0,0.0,215.0,1
481,481,0.7045275067594363,0.7,0,329.0,685.0,0.0,696.0,1
482,482,-0.8633300384330767,-0.9,1,431.0,546.0,1.0,163.0,1
483,483,0.4023772922951039,0.4,0,393.0,753.0,0.0,574.0,1
484,484,0.09913144997829382,0.1,0,266.0,771.0,1.0,853.0,0
485,485,-0.07879656894327414,-0.1,1,280.0,822.0,1.0,3898.0,1
486,486,0.1822731154429451,0.2,0,272.0,597.0,0.0,1811.0,1
487,487,0.15913300007101894,0.2,0,341.0,582.0,0.0,1277.0,1
488,488,-0.9305201015234261,-0.9,1,319.0,838.0,1.0,423.0,1
489,489,0.3201502770818836,0.3,0,330.0,964.0,0.0,536.0,1
490,490,-0.9585459209761551,-1.0,1,297.0,726.0,1.0,1107.0,1
491,491,0.16136448228592726,0.2,0,282.0,943.0,0.0,1515.0,1
492,492,-0.6873980269862618,-0.7,1,478.0,611.0,1.0,351.0,1
493,493,0.5441063227137835,0.5,0,450.0,738.0,0.0,922.0,1
494,494,-0.43119387963678846,-0.4,1,468.0,620.0,1.0,492.0,1
495,495,-0.5358425688596957,-0.5,1,349.0,750.0,1.0,2291.0,1
496,496,-0.5911783494306102,-0.6,1,387.0,771.0,1.0,1542.0,1
497,497,-0.14042916314499143,-0.1,1,359.0,583.0,1.0,848.0,1
498,498,-0.9188820425072468,-0.9,1,378.0,742.0,1.0,420.0,1
499,499,0.4810625500850294,0.5,0,442.0,977.0,0.0,1821.0,1
500,500,0.8102470023952824,0.8,0,274.0,565.0,0.0,271.0,1
501,501,0.9055541492792138,0.9,0,325.0,856.0,0.0,489.0,1
502,502,0.5357856451693039,0.5,0,379.0,768.0,0.0,373.0,1
503,503,-0.9797343007063224,-1.0,1,479.0,934.0,1.0,177.0,1
504,504,-0.7412894822373777,-0.7,1,489.0,560.0,1.0,351.0,1
505,505,0.310951768989997,0.3,0,407.0,599.0,0.0,3994.0,1
506,506,-0.11213603827666119,-0.1,1,453.0,930.0,1.0,1057.0,1
507,507,-0.05248175713660208,-0.1,1,329.0,737.0,0.0,1434.0,0
508,508,0.32882548412455437,0.3,0,311.0,620.0,0.0,1689.0,1
509,509,-0.5291717926633541,-0.5,1,312.0,876.0,1.0,152.0,1
510,510,-0.42913219673733516,-0.4,1,387.0,700.0,1.0,413.0,1
511,511,0.20473974703894693,0.2,0,385.0,969.0,0.0,1376.0,1
512,512,0.6572417963297386,0.7,0,318.0,780.0,0.0,872.0,1
513,513,-0.8636086140533106,-0.9,1,306.0,677.0,1.0,207.0,1
514,514,-0.5959550298020018,-0.6,1,489.0,899.0,1.0,122.0,1
515,515,0.5919292554278439,0.6,0,322.0,963.0,0.0,715.0,1
516,516,0.4728750533977575,0.5,0,433.0,521.0,0.0,3756.0,1
517,517,-0.20345282874117143,-0.2,1,317.0,964.0,1.0,1279.0,1
518,518,0.3369662679923593,0.3,0,361.0,542.0,1.0,407.0,0
519,519,-0.9105747842751142,-0.9,1,397.0,531.0,1.0,822.0,1
520,520,0.6575210355001619,0.7,0,271.0,819.0,0.0,400.0,1
521,521,-0.94382178907582,-0.9,1,444.0,578.0,1.0,448.0,1
522,522,0.1498659341570201,0.1,0,380.0,608.0,0.0,4012.0,1
523,523,0.5747798946508857,0.6,0,398.0,598.0,0.0,184.0,1
524,524,-0.08017101788243464,-0.1,1,333.0,945.0,1.0,502.0,1
525,525,-0.10479373814404269,-0.1,1,473.0,732.0,1.0,2185.0,1
526,526,-0.7361789072387039,-0.7,1,490.0,907.0,1.0,343.0,1
527,527,-0.745067386930278,-0.7,1,471.0,682.0,1.0,237.0,1
528,528,-0.10959612532823426,-0.1,1,329.0,663.0,1.0,2278.0,1
529,529,0.029579003103882284,0.0,0,417.0,669.0,1.0,3914.0,0
530,530,-0.16510839886830375,-0.2,1,447.0,971.0,1.0,352.0,1
531,531,0.5225337072285445,0.5,0,341.0,522.0,0.0,1997.0,1
532,532,0.08657754344059199,0.1,0,302.0,640.0,1.0,1088.0,0
533,533,-0.31691853127689473,-0.3,1,434.0,710.0,1.0,1026.0,1
534,534,-0.17351460105726169,-0.2,1,408.0,753.0,1.0,1079.0,1
535,535,0.8456643010760001,0.8,0,482.0,792.0,0.0,336.0,1
536,536,-0.9975413654599272,-1.0,1,405.0,709.0,1.0,146.0,1
537,537,-0.7609142250812639,-0.8,1,461.0,692.0,1.0,67.0,1
538,538,-0.8802962105558407,-0.9,1,494.0,655.0,1.0,181.0,1
539,539,0.004899194983145838,0.0,0,472.0,818.0,0.0,2720.0,1
540,540,-0.9141548271829334,-0.9,1,421.0,555.0,1.0,834.0,1
541,541,0.22943642516333185,0.2,0,433.0,801.0,0.0,566.0,1
542,542,-0.4398442910486793,-0.4,1,354.0,721.0,1.0,1065.0,1
543,543,-0.6807505080869074,-0.7,1,487.0,514.0,1.0,399.0,1
544,544,-0.5642977120857573,-0.6,1,436.0,505.0,1.0,889.0,1
545,545,-0.5981067100153952,-0.6,1,345.0,875.0,1.0,290.0,1
546,546,-0.8050592507812353,-0.8,1,454.0,749.0,1.0,157.0,1
547,547,-0.9602360122516245,-1.0,1,393.0,601.0,1.0,496.0,1
548,548,0.9353011523294754,0.9,0,377.0,790.0,0.0,263.0,1
549,549,0.055575759927978474,0.1,0,421.0,514.0,1.0,3755.0,0
550,550,-0.2576847317436184,-0.3,1,394.0,577.0,1.0,2029.0,1
551,551,-0.7785530029677468,-0.8,1,456.0,700.0,1.0,1144.0,1
552,552,-0.22015603138630757,-0.2,1,260.0,980.0,1.0,900.0,1
553,553,-0.6418381971116556,-0.6,1,425.0,925.0,1.0,520.0,1
554,554,-0.9473533006053625,-0.9,1,476.0,625.0,1.0,429.0,1
555,555,-0.6889671082220936,-0.7,1,419.0,717.0,1.0,414.0,1
556,556,-0.1577228553589407,-0.2,1,347.0,813.0,1.0,1270.0,1
557,557,0.9580701252901414,1.0,0,473.0,603.0,0.0,164.0,1
558,558,-0.9668493613280484,-1.0,1,293.0,791.0,1.0,206.0,1
559,559,-0.4921038094585344,-0.5,1,251.0,885.0,1.0,224.0,1
560,560,0.6489831057252733,0.6,0,302.0,568.0,0.0,630.0,1
561,561,0.3967552541157007,0.4,0,498.0,734.0,0.0,428.0,1
562,562,0.7583934552771674,0.8,0,284.0,634.0,0.0,512.0,1
563,563,0.45834301286394385,0.5,0,406.0,770.0,0.0,2234.0,1
564,564,0.5459413070043402,0.5,0,477.0,783.0,0.0,570.0,1
565,565,-0.8232614580700779,-0.8,1,284.0,880.0,1.0,346.0,1
566,566,0.07094467449464892,0.1,0,350.0,899.0,1.0,551.0,0
567,567,0.3111982850902919,0.3,0,386.0,685.0,0.0,2999.0,1
568,568,0.5376187662291918,0.5,0,352.0,686.0,0.0,402.0,1
569,569,0.3071865507880327,0.3,0,279.0,658.0,1.0,173.0,0
570,570,0.4700768961792765,0.5,0,363.0,772.0,0.0,1445.0,1
571,571,-0.3532686442951172,-0.4,1,424.0,563.0,1.0,2043.0,1
572,572,-0.03044594818107127,-0.0,1,383.0,818.0,0.0,609.0,0
573,573,-0.2617137859216947,-0.3,1,354.0,805.0,1.0,1051.0,1
574,574,0.6246668210657522,0.6,0,289.0,759.0,0.0,452.0,1
575,575,-0.2761919717716801,-0.3,1,307.0,613.0,1.0,880.0,1
576,576,-0.7121031062036165,-0.7,1,497.0,806.0,1.0,427.0,1
577,577,0.6183347349018629,0.6,0,400.0,884.0,0.0,266.0,1
578,578,0.9197425223373934,0.9,0,260.0,933.0,0.0,457.0,1
579,579,-0.35632492701154317,-0.4,1,451.0,674.0,1.0,1255.0,1
580,580,-0.33053140839572226,-0.3,1,491.0,991.0,1.0,1748.0,1
581,581,-0.3093368882584113,-0.3,1,408.0,721.0,1.0,3281.0,1
582,582,-0.5354964783177081,-0.5,1,402.0,831.0,1.0,1367.0,1
583,583,-0.26707766632695606,-0.3,1,341.0,575.0,1.0,1134.0,1
584,584,0.9816725766117591,1.0,0,446.0,594.0,0.0,530.0,1
585,585,-0.7479214428920304,-0.7,1,277.0,649.0,1.0,664.0,1
586,586,-0.8980681546492018,-0.9,1,473.0,740.0,1.0,637.0,1
587,587,0.9362258120026854,0.9,0,406.0,791.0,0.0,543.0,1
588,588,0.5530389738390873,0.6,0,303.0,953.0,0.0,144.0,1
589,589,-0.9597953653545512,-1.0,1,263.0,934.0,1.0,203.0,1
590,590,-0.5385808905052676,-0.5,1,488.0,513.0,1.0,919.0,1
591,591,-0.9270711161264138,-0.9,1,416.0,901.0,1.0,583.0,1
592,592,-0.48700013263119346,-0.5,1,277.0,996.0,1.0,607.0,1
593,593,0.8044760885620739,0.8,0,467.0,757.0,0.0,776.0,1
594,594,0.028779614264843323,0.0,0,276.0,677.0,1.0,327.0,0
595,595,-0.13447908950131993,-0.1,1,446.0,563.0,1.0,351.0,1
596,596,0.47299844713558103,0.5,0,289.0,777.0,0.0,3934.0,1
597,597,-0.7433022575581492,-0.7,1,349.0,781.0,1.0,270.0,1
598,598,-0.17191835651116438,-0.2,1,333.0,528.0,1.0,529.0,1
599,599,-0.6155719360276257,-0.6,1,406.0,740.0,1.0,484.0,1
600,600,0.03887894658282942,0.0,0,388.0,604.0,1.0,1908.0,0
601,601,0.9412963700476487,0.9,0,251.0,740.0,0.0,389.0,1
602,602,0.749155411277368,0.7,0,296.0,569.0,0.0,785.0,1
603,603,-0.9832850361781917,-1.0,1,480.0,956.0,1.0,644.0,1
604,604,-0.2747042797827335,-0.3,1,433.0,645.0,1.0,392.0,1
605,605,-0.10069068303416273,-0.1,1,432.0,562.0,1.0,866.0,1
606,606,-0.14388800957157777,-0.1,1,270.0,868.0,1.0,252.0,1
607,607,-0.8731557062534927,-0.9,1,482.0,817.0,1.0,371.0,1
608,608,0.35551697467504306,0.4,0,323.0,545.0,0.0,1732.0,1
609,609,-0.14703719554598904,-0.1,1,281.0,775.0,1.0,3654.0,1
610,610,-0.5007113127342568,-0.5,1,388.0,931.0,1.0,2281.0,1
611,611,0.024400522436239136,0.0,0,283.0,988.0,1.0,3729.0,0
612,612,-0.47791107197937643,-0.5,1,266.0,785.0,1.0,1779.0,1
613,613,0.7408136258955238,0.7,0,329.0,728.0,0.0,783.0,1
614,614,0.7497792151007712,0.7,0,451.0,803.0,0.0,2036.0,1
615,615,-0.48991980620163034,-0.5,1,385.0,794.0,1.0,1241.0,1
616,616,-0.8316277686901632,-0.8,1,275.0,643.0,1.0,482.0,1
617,617,0.3506345112396516,0.4,0,355.0,642.0,0.0,1033.0,1
618,618,0.5976699691182472,0.6,0,456.0,702.0,0.0,852.0,1
619,619,-0.8910179286360194,-0.9,1,346.0,874.0,1.0,340.0,1
620,620,0.19586427232314674,0.2,0,391.0,633.0,1.0,706.0,0
621,621,-0.37666496800236793,-0.4,1,486.0,855.0,1.0,229.0,1
622,622,-0.7291397642581325,-0.7,1,309.0,873.0,1.0,448.0,1
623,623,0.6937086285908736,0.7,0,275.0,710.0,0.0,2745.0,1
624,624,-0.7061779363132117,-0.7,1,462.0,826.0,1.0,352.0,1
625,625,0.9600799173738621,1.0,0,304.0,938.0,0.0,818.0,1
626,626,0.6659771579002258,0.7,0,486.0,649.0,0.0,675.0,1
627,627,0.7692454076882813,0.8,0,455.0,967.0,0.0,398.0,1
628,628,0.3434463007754671,0.3,0,255.0,906.0,0.0,2069.0,1
629,629,0.8657869080701628,0.9,0,388.0,672.0,0.0,480.0,1
630,630,-0.7009423809351942,-0.7,1,325.0,731.0,1.0,384.0,1
631,631,0.5617448933670353,0.6,0,379.0,755.0,0.0,1136.0,1
632,632,-0.03229895891765899,-0.0,1,280.0,692.0,1.0,1918.0,1
633,633,0.8445117740193073,0.8,0,449.0,903.0,0.0,768.0,1
634,634,0.027698955449777962,0.0,0,296.0,806.0,0.0,288.0,1
635,635,0.2598508502707544,0.3,0,323.0,756.0,0.0,1251.0,1
636,636,-0.25054569003162985,-0.3,1,288.0,681.0,1.0,2121.0,1
637,637,-0.5050056866364749,-0.5,1,403.0,639.0,1.0,1158.0,1
638,638,-0.7000308755372462,-0.7,1,388.0,619.0,1.0,793.0,1
639,639,0.2514823381868667,0.3,0,260.0,779.0,0.0,611.0,1
640,640,-0.387066479057671,-0.4,1,382.0,565.0,1.0,383.0,1
641,641,-0.46664145338436525,-0.5,1,496.0,660.0,1.0,1444.0,1
642,642,-0.14003204391934454,-0.1,1,461.0,825.0,1.0,3714.0,1
643,643,0.4515666018902955,0.5,0,320.0,513.0,0.0,1447.0,1
644,644,0.9299601888046496,0.9,0,315.0,734.0,0.0,1071.0,1
645,645,0.19808884778485658,0.2,0,317.0,857.0,1.0,2306.0,0
646,646,0.8388205408169405,0.8,0,290.0,655.0,0.0,335.0,1
647,647,-0.267923027420478,-0.3,1,450.0,951.0,1.0,659.0,1
648,648,-0.5743967273757675,-0.6,1,305.0,901.0,1.0,504.0,1
649,649,-0.9379314077416474,-0.9,1,481.0,793.0,1.0,616.0,1
650,650,0.28917029840421504,0.3,0,473.0,527.0,0.0,850.0,1
651,651,-0.2532465056799662,-0.3,1,302.0,915.0,1.0,973.0,1
652,652,0.5456948280419212,0.5,0,308.0,890.0,0.0,742.0,1
653,653,-0.8376458736581027,-0.8,1,404.0,915.0,1.0,201.0,1
654,654,-0.8841184129532214,-0.9,1,359.0,720.0,1.0,91.0,1
655,655,0.7518865858435217,0.8,0,459.0,712.0,0.0,419.0,1
656,656,0.4413969785117404,0.4,0,458.0,609.0,0.0,83.0,1
657,657,-0.7945270014734853,-0.8,1,273.0,630.0,1.0,1417.0,1
658,658,0.5180974833946266,0.5,0,432.0,814.0,0.0,974.0,1
659,659,-0.8657700152166297,-0.9,1,422.0,814.0,1.0,184.0,1
660,660,0.13844883340237701,0.1,0,291.0,819.0,0.0,3630.0,1
661,661,0.14021472116649458,0.1,0,278.0,922.0,1.0,240.0,0
662,662,-0.757695448642955,-0.8,1,277.0,812.0,1.0,371.0,1
663,663,0.35264418860383007,0.4,0,347.0,592.0,0.0,2361.0,1
664,664,-0.6364904662248303,-0.6,1,320.0,689.0,1.0,891.0,1
665,665,0.45483565849744556,0.5,0,265.0,612.0,0.0,573.0,1
666,666,0.7249669676766883,0.7,0,469.0,574.0,0.0,327.0,1
667,667,0.9114100703612755,0.9,0,297.0,684.0,0.0,689.0,1
668,668,-0.8349397329935286,-0.8,1,383.0,824.0,1.0,793.0,1
669,669,-0.6592476978508697,-0.7,1,337.0,853.0,1.0,1250.0,1
670,670,-0.18570169526669433,-0.2,1,380.0,904.0,1.0,986.0,1
671,671,-0.7156682517106718,-0.7,1,306.0,768.0,1.0,636.0,1
672,672,0.7391884851788417,0.7,0,357.0,717.0,0.0,296.0,1
673,673,-0.18584297961336782,-0.2,1,431.0,877.0,1.0,1752.0,1
674,674,-0.7957922679367031,-0.8,1,306.0,660.0,1.0,64.0,1
675,675,0.06474539629371767,0.1,0,289.0,501.0,0.0,4210.0,1
676,676,-0.4952215958846311,-0.5,1,394.0,945.0,1.0,221.0,1
677,677,-0.5085693758894188,-0.5,1,293.0,845.0,1.0,1032.0,1
678,678,0.8836266765068135,0.9,0,406.0,711.0,0.0,663.0,1
679,679,0.9016473435788697,0.9,0,367.0,685.0,0.0,478.0,1
680,680,0.43003759072851744,0.4,0,427.0,648.0,0.0,2625.0,1
681,681,0.48176613741934515,0.5,0,288.0,952.0,0.0,770.0,1
682,682,-0.40653145849095007,-0.4,1,365.0,540.0,1.0,595.0,1
683,683,0.3843004989089931,0.4,0,463.0,778.0,0.0,89.0,1
684,684,-0.6699730178536207,-0.7,1,390.0,605.0,1.0,1695.0,1
685,685,-0.9115800757962909,-0.9,1,488.0,622.0,1.0,340.0,1
686,686,0.08661187474653631,0.1,0,285.0,864.0,1.0,811.0,0
687,687,0.7465524107069477,0.7,0,393.0,751.0,0.0,1806.0,1
688,688,-0.05831563438143683,-0.1,1,257.0,885.0,1.0,668.0,1
689,689,-0.617452314003605,-0.6,1,414.0,726.0,1.0,200.0,1
690,690,-0.7068306084176494,-0.7,1,268.0,978.0,1.0,644.0,1
691,691,0.7814270279000217,0.8,0,455.0,960.0,0.0,1165.0,1
692,692,-0.5664741147965533,-0.6,1,370.0,697.0,1.0,243.0,1
693,693,-0.23225375047649588,-0.2,1,323.0,852.0,1.0,665.0,1
694,694,0.8432254674355373,0.8,0,348.0,715.0,0.0,1087.0,1
695,695,0.27571817466316206,0.3,0,451.0,757.0,0.0,3792.0,1
696,696,0.4050586957283113,0.4,0,388.0,717.0,0.0,1765.0,1
697,697,0.4758995554402088,0.5,0,392.0,952.0,0.0,446.0,1
698,698,0.948301019845821,0.9,0,482.0,533.0,0.0,965.0,1
699,699,0.21914476383664505,0.2,0,329.0,803.0,0.0,578.0,1
700,700,0.5927205877491224,0.6,0,442.0,953.0,0.0,1635.0,1
701,701,-0.6481365038350906,-0.6,1,258.0,779.0,1.0,163.0,1
702,702,0.8892074664090468,0.9,0,457.0,851.0,0.0,342.0,1
703,703,0.0985344335648557,0.1,0,298.0,569.0,1.0,643.0,0
704,704,-0.9913851983703006,-1.0,1,371.0,544.0,1.0,355.0,1
705,705,0.09302741014494065,0.1,0,464.0,761.0,1.0,255.0,0
706,706,-0.05943232998406223,-0.1,1,252.0,891.0,1.0,137.0,1
707,707,0.12849845356216583,0.1,0,318.0,510.0,1.0,1402.0,0
708,708,-0.19077946577203697,-0.2,1,272.0,548.0,1.0,830.0,1
709,709,-0.3489738272406011,-0.3,1,468.0,597.0,1.0,565.0,1
710,710,-0.09887795948281308,-0.1,1,312.0,820.0,1.0,668.0,1
711,711,-0.808529495181874,-0.8,1,486.0,910.0,1.0,224.0,1
712,712,-0.29700613727074754,-0.3,1,292.0,552.0,1.0,1006.0,1
713,713,0.3676194367585517,0.4,0,256.0,563.0,0.0,2071.0,1
714,714,0.8902026511166288,0.9,0,356.0,502.0,0.0,382.0,1
715,715,0.17244827918088523,0.2,0,489.0,785.0,0.0,376.0,1
716,716,-0.734288870481083,-0.7,1,407.0,824.0,1.0,189.0,1
717,717,-0.4436918130734153,-0.4,1,338.0,971.0,1.0,381.0,1
718,718,0.885743729679233,0.9,0,439.0,792.0,0.0,559.0,1
719,719,0.7874438332458249,0.8,0,489.0,634.0,0.0,447.0,1
720,720,0.7698270846475546,0.8,0,397.0,851.0,0.0,72.0,1
721,721,0.976091082049878,1.0,0,372.0,618.0,0.0,1590.0,1
722,722,0.4215174248761666,0.4,0,356.0,813.0,0.0,1511.0,1
723,723,-0.2308200153550759,-0.2,1,382.0,739.0,1.0,109.0,1
724,724,0.9471439141906635,0.9,0,396.0,964.0,0.0,440.0,1
725,725,0.49743295557068157,0.5,0,391.0,750.0,0.0,3109.0,1
726,726,0.7079337928218128,0.7,0,273.0,954.0,0.0,603.0,1
727,727,-0.3638379298320835,-0.4,1,324.0,847.0,1.0,549.0,1
728,728,0.5997903112209202,0.6,0,364.0,742.0,0.0,1044.0,1
729,729,-0.055852208754045396,-0.1,1,360.0,842.0,1.0,538.0,1
730,730,0.1617804500144051,0.2,0,320.0,901.0,0.0,1169.0,1
731,731,0.9727923508789089,1.0,0,330.0,839.0,0.0,851.0,1
732,732,-0.5876962904749687,-0.6,1,289.0,563.0,1.0,538.0,1
733,733,-0.2931141246836759,-0.3,1,442.0,567.0,1.0,51.0,1
734,734,0.8678961134856755,0.9,0,492.0,848.0,0.0,410.0,1
735,735,0.9443227639763441,0.9,0,318.0,779.0,0.0,813.0,1
736,736,0.08093256803709314,0.1,0,454.0,810.0,1.0,2976.0,0
737,737,-0.42880731913381886,-0.4,1,405.0,614.0,1.0,501.0,1
738,738,-0.48859320614288015,-0.5,1,319.0,979.0,1.0,1362.0,1
739,739,-0.060266296543365794,-0.1,1,385.0,825.0,1.0,1350.0,1
740,740,0.7086628454511978,0.7,0,438.0,590.0,0.0,342.0,1
741,741,-0.8898950389567448,-0.9,1,288.0,607.0,1.0,625.0,1
742,742,-0.6700177853398346,-0.7,1,310.0,951.0,1.0,309.0,1
743,743,0.10151803020791528,0.1,0,258.0,974.0,0.0,358.0,1
744,744,-0.9269712773533612,-0.9,1,375.0,531.0,1.0,124.0,1
745,745,-0.331302618742326,-0.3,1,398.0,886.0,1.0,686.0,1
746,746,-0.2471250511691716,-0.2,1,250.0,605.0,1.0,395.0,1
747,747,-0.3060389929221041,-0.3,1,389.0,846.0,1.0,1335.0,1
748,748,0.28198107142660755,0.3,0,465.0,723.0,0.0,1282.0,1
749,749,-0.6517744443365601,-0.7,1,355.0,605.0,1.0,90.0,1
750,750,-0.3566134736319695,-0.4,1,452.0,994.0,1.0,2584.0,1
751,751,0.9204635442886269,0.9,0,480.0,923.0,0.0,337.0,1
752,752,-0.3937071513116397,-0.4,1,439.0,734.0,1.0,1137.0,1
753,753,-0.6836549051823633,-0.7,1,276.0,713.0,1.0,511.0,1
754,754,-0.9596750764020332,-1.0,1,476.0,616.0,1.0,198.0,1
755,755,-0.10555882461575439,-0.1,1,357.0,672.0,1.0,701.0,1
756,756,0.24351882235289146,0.2,0,450.0,812.0,0.0,1318.0,1
757,757,-0.018420667858214612,-0.0,1,336.0,691.0,1.0,3973.0,1
758,758,-0.21076078314776758,-0.2,1,306.0,952.0,0.0,802.0,0
759,759,0.3930697980888316,0.4,0,269.0,678.0,0.0,343.0,1
760,760,-0.21696821796511023,-0.2,1,292.0,688.0,1.0,2390.0,1
761,761,0.6706915361961745,0.7,0,261.0,504.0,0.0,385.0,1
762,762,-0.7199850551430216,-0.7,1,456.0,569.0,1.0,95.0,1
763,763,-0.9106287363729206,-0.9,1,452.0,799.0,1.0,129.0,1
764,764,0.5969936041803343,0.6,0,258.0,512.0,0.0,270.0,1
765,765,0.6342734111079593,0.6,0,482.0,618.0,0.0,1100.0,1
766,766,-0.737139209098139,-0.7,1,358.0,695.0,1.0,207.0,1
767,767,0.09526806930476273,0.1,0,339.0,851.0,0.0,1310.0,1
768,768,0.6365925481304169,0.6,0,405.0,778.0,0.0,2147.0,1
769,769,-0.017829109460140824,-0.0,1,404.0,936.0,1.0,3150.0,1
770,770,-0.2930228206226677,-0.3,1,460.0,691.0,1.0,1069.0,1
771,771,0.03096699842962569,0.0,0,260.0,607.0,1.0,873.0,0
772,772,0.5196022046886157,0.5,0,413.0,758.0,0.0,1279.0,1
773,773,-0.30097941940907713,-0.3,1,376.0,753.0,0.0,331.0,0
774,774,0.0011875925562458978,0.0,0,280.0,525.0,0.0,2005.0,1
775,775,-0.11809360686746051,-0.1,1,336.0,522.0,1.0,2972.0,1
776,776,-0.1572323285875208,-0.2,1,348.0,665.0,0.0,877.0,0
777,777,0.3052793603605297,0.3,0,421.0,738.0,0.0,1651.0,1
778,778,-0.8875829291099488,-0.9,1,423.0,808.0,1.0,109.0,1
779,779,0.44891628095766856,0.4,0,253.0,946.0,0.0,1951.0,1
780,780,-0.32457568736232423,-0.3,1,275.0,941.0,1.0,874.0,1
781,781,0.5235618190679938,0.5,0,497.0,641.0,0.0,2512.0,1
782,782,0.4953832084720238,0.5,0,282.0,718.0,0.0,770.0,1
783,783,0.8346341716637817,0.8,0,433.0,554.0,0.0,243.0,1
784,784,0.9034287680539888,0.9,0,258.0,545.0,0.0,2157.0,1
785,785,-0.4142543718263225,-0.4,1,315.0,908.0,1.0,1047.0,1
786,786,0.9219635221532931,0.9,0,333.0,582.0,0.0,735.0,1
787,787,-0.7124527268751386,-0.7,1,340.0,953.0,1.0,447.0,1
788,788,-0.5255509975163464,-0.5,1,341.0,688.0,1.0,751.0,1
789,789,0.2524690091688271,0.3,0,295.0,908.0,0.0,797.0,1
790,790,0.25953617854550703,0.3,0,292.0,561.0,0.0,1087.0,1
791,791,-0.9909125800275689,-1.0,1,345.0,543.0,1.0,242.0,1
792,792,-0.6689902984770051,-0.7,1,392.0,914.0,1.0,294.0,1
793,793,0.5738218081518558,0.6,0,449.0,734.0,0.0,927.0,1
794,794,0.6613993858793623,0.7,0,378.0,853.0,0.0,869.0,1
795,795,-0.6333047319313962,-0.6,1,305.0,988.0,1.0,717.0,1
796,796,-0.6595935247492948,-0.7,1,427.0,806.0,1.0,347.0,1
797,797,0.4702792118745882,0.5,0,349.0,950.0,0.0,2041.0,1
798,798,0.79906961600469,0.8,0,282.0,950.0,0.0,1158.0,1
799,799,-0.1352474655264302,-0.1,1,369.0,618.0,1.0,1743.0,1
800,800,-0.10428453382949776,-0.1,1,349.0,524.0,1.0,2757.0,1
801,801,0.5576526649627294,0.6,0,263.0,792.0,0.0,325.0,1
802,802,-0.03586399391612205,-0.0,1,352.0,994.0,1.0,304.0,1
803,803,0.47351391792667474,0.5,0,271.0,865.0,1.0,534.0,0
804,804,-0.7968480634639523,-0.8,1,403.0,796.0,1.0,301.0,1
805,805,-0.24767084941205852,-0.2,1,437.0,638.0,1.0,2655.0,1
806,806,0.87675555370084,0.9,0,388.0,935.0,0.0,437.0,1
807,807,-0.5172105305338732,-0.5,1,397.0,604.0,1.0,1779.0,1
808,808,0.9676894208908786,1.0,0,287.0,645.0,0.0,548.0,1
809,809,0.9472692073409408,0.9,0,498.0,690.0,0.0,182.0,1
810,810,0.28889722490273084,0.3,0,389.0,693.0,0.0,618.0,1
811,811,-0.7843648210502217,-0.8,1,481.0,571.0,1.0,248.0,1
812,812,0.8807782051229693,0.9,0,340.0,675.0,0.0,295.0,1
813,813,0.5280071354935465,0.5,0,356.0,934.0,0.0,2820.0,1
814,814,-0.7099295412705513,-0.7,1,405.0,920.0,1.0,455.0,1
815,815,-0.7287073275717024,-0.7,1,268.0,700.0,1.0,732.0,1
816,816,0.14039273754614556,0.1,0,433.0,978.0,0.0,3249.0,1
817,817,0.5816509040742672,0.6,0,332.0,509.0,0.0,559.0,1
818,818,0.7436178447188801,0.7,0,444.0,701.0,0.0,885.0,1
819,819,-0.7367616711765315,-0.7,1,329.0,802.0,1.0,409.0,1
820,820,-0.9707513846613478,-1.0,1,265.0,760.0,1.0,165.0,1
821,821,-0.9612435915299813,-1.0,1,437.0,965.0,1.0,378.0,1
822,822,-0.8123919876592098,-0.8,1,289.0,610.0,1.0,741.0,1
823,823,0.7549657872495907,0.8,0,260.0,754.0,0.0,1576.0,1
824,824,0.2774294607298451,0.3,0,434.0,502.0,0.0,1084.0,1
825,825,0.5109255158079347,0.5,0,496.0,888.0,0.0,546.0,1
826,826,-0.0005103582161769538,-0.0,1,436.0,585.0,0.0,1269.0,0
827,827,0.6582482455315262,0.7,0,364.0,915.0,0.0,2881.0,1
828,828,0.5264937101609981,0.5,0,490.0,865.0,0.0,1675.0,1
829,829,-0.6799645805078365,-0.7,1,312.0,770.0,1.0,418.0,1
830,830,-0.7802229072680231,-0.8,1,410.0,686.0,1.0,204.0,1
831,831,-0.6650008227562827,-0.7,1,393.0,697.0,1.0,970.0,1
832,832,0.9564009093157264,1.0,0,443.0,509.0,0.0,198.0,1
833,833,-0.8961824354296881,-0.9,1,446.0,595.0,1.0,159.0,1
834,834,-0.8130819463519259,-0.8,1,432.0,944.0,1.0,314.0,1
835,835,-0.7970383578555815,-0.8,1,427.0,625.0,1.0,1608.0,1
836,836,-0.3786717594479092,-0.4,1,326.0,821.0,1.0,383.0,1
837,837,0.8638389811067535,0.9,0,476.0,540.0,0.0,424.0,1
838,838,-0.8790012886787064,-0.9,1,306.0,826.0,1.0,128.0,1
839,839,-0.10745865989329717,-0.1,1,382.0,521.0,1.0,417.0,1
840,840,0.2837949026029829,0.3,0,329.0,630.0,1.0,281.0,0
841,841,-0.2671820134941574,-0.3,1,282.0,518.0,1.0,4200.0,1
842,842,-0.23866819850001053,-0.2,1,265.0,757.0,1.0,268.0,1
843,843,0.31485898784226984,0.3,0,462.0,552.0,0.0,2676.0,1
844,844,-0.06420588380542314,-0.1,1,313.0,719.0,1.0,1058.0,1
845,845,-0.232070453111481,-0.2,1,271.0,612.0,1.0,1737.0,1
846,846,0.19468690082634388,0.2,0,368.0,877.0,0.0,1275.0,1
847,847,0.6710617385404773,0.7,0,392.0,726.0,0.0,702.0,1
848,848,-0.4810218045147192,-0.5,1,381.0,730.0,1.0,1339.0,1
849,849,0.4554229465633124,0.5,0,446.0,727.0,1.0,527.0,0
850,850,0.15979082390841648,0.2,0,436.0,824.0,0.0,3420.0,1
851,851,-0.15087661385422813,-0.2,1,339.0,716.0,1.0,3725.0,1
852,852,-0.4735690770427221,-0.5,1,489.0,659.0,1.0,1512.0,1
853,853,0.8583960699570905,0.9,0,404.0,766.0,0.0,570.0,1
854,854,0.10467086185213859,0.1,0,374.0,814.0,1.0,512.0,0
855,855,0.7794750181256744,0.8,0,297.0,711.0,0.0,692.0,1
856,856,0.832320319834736,0.8,0,294.0,532.0,0.0,54.0,1
857,857,-0.12401755614798726,-0.1,1,460.0,670.0,1.0,1140.0,1
858,858,-0.13746725539266036,-0.1,1,413.0,608.0,1.0,409.0,1
859,859,0.32338360849378067,0.3,0,478.0,666.0,0.0,566.0,1
860,860,-0.17935638199713777,-0.2,1,258.0,969.0,1.0,1553.0,1
861,861,-0.44957505554395083,-0.4,1,382.0,537.0,1.0,471.0,1
862,862,-0.5739581855256588,-0.6,1,463.0,797.0,1.0,290.0,1
863,863,-0.7464441880168258,-0.7,1,441.0,974.0,1.0,175.0,1
864,864,-0.5673312919486575,-0.6,1,376.0,546.0,1.0,708.0,1
865,865,-0.34924528463175797,-0.3,1,315.0,787.0,1.0,1768.0,1
866,866,0.1634797526346432,0.2,0,375.0,777.0,0.0,1028.0,1
867,867,0.9702255180657351,1.0,0,253.0,517.0,0.0,400.0,1
868,868,-0.8491756624880911,-0.8,1,469.0,762.0,1.0,89.0,1
869,869,0.1317954658187399,0.1,0,473.0,755.0,1.0,852.0,0
870,870,0.8535038167561286,0.9,0,452.0,848.0,0.0,130.0,1
871,871,-0.7405668233917402,-0.7,1,432.0,629.0,1.0,789.0,1
872,872,0.4857965404615312,0.5,0,435.0,656.0,0.0,1319.0,1
873,873,0.9563997029334745,1.0,0,492.0,744.0,0.0,544.0,1
874,874,-0.12857274499928817,-0.1,1,471.0,823.0,1.0,106.0,1
875,875,-0.08847674775052727,-0.1,1,318.0,581.0,1.0,1451.0,1
876,876,-0.8195896167657024,-0.8,1,301.0,755.0,1.0,714.0,1
877,877,-0.9197864246240091,-0.9,1,437.0,955.0,1.0,238.0,1
878,878,-0.7007019741221963,-0.7,1,389.0,998.0,1.0,113.0,1
879,879,0.9533494022867646,1.0,0,387.0,847.0,0.0,696.0,1
880,880,0.07228045596026922,0.1,0,378.0,544.0,1.0,4078.0,0
881,881,-0.6221091363105102,-0.6,1,492.0,514.0,1.0,284.0,1
882,882,0.39654696571673775,0.4,0,462.0,871.0,0.0,1287.0,1
883,883,-0.7816940077720969,-0.8,1,412.0,568.0,1.0,350.0,1
884,884,-0.559183388119628,-0.6,1,412.0,684.0,1.0,1114.0,1
885,885,-0.05922961092471213,-0.1,1,288.0,915.0,0.0,1787.0,0
886,886,-0.14430175671993317,-0.1,1,458.0,776.0,1.0,336.0,1
887,887,-0.13062565493952372,-0.1,1,323.0,867.0,1.0,3140.0,1
888,888,0.7896819509798365,0.8,0,472.0,896.0,0.0,182.0,1
889,889,0.23325795324287601,0.2,0,442.0,961.0,0.0,2347.0,1
890,890,0.32697934764987857,0.3,0,300.0,738.0,0.0,3102.0,1
891,891,-0.05233539415475841,-0.1,1,361.0,753.0,0.0,536.0,0
892,892,0.17863614932566674,0.2,0,357.0,704.0,0.0,719.0,1
893,893,-0.9992580515073182,-1.0,1,380.0,797.0,1.0,53.0,1
894,894,-0.9829280338502133,-1.0,1,380.0,649.0,1.0,261.0,1
895,895,0.06041530125569117,0.1,0,393.0,747.0,0.0,3270.0,1
896,896,0.4530350774122005,0.5,0,425.0,505.0,0.0,770.0,1
897,897,-0.972045159194934,-1.0,1,411.0,837.0,1.0,272.0,1
898,898,-0.37435010223795184,-0.4,1,345.0,852.0,1.0,963.0,1
899,899,0.3046426933666464,0.3,0,380.0,554.0,0.0,426.0,1
900,900,-0.7713692227546778,-0.8,1,474.0,556.0,1.0,420.0,1
901,901,-0.41271772650430405,-0.4,1,287.0,972.0,1.0,1211.0,1
902,902,0.6699209501296528,0.7,0,267.0,994.0,0.0,1259.0,1
903,903,0.8343939096842328,0.8,0,370.0,879.0,0.0,231.0,1
904,904,-0.07490928514651585,-0.1,1,416.0,554.0,1.0,780.0,1
905,905,-0.25120095880092386,-0.3,1,428.0,789.0,1.0,1593.0,1
906,906,-0.6540175627556593,-0.7,1,321.0,837.0,1.0,492.0,1
907,907,-0.8645633045667438,-0.9,1,366.0,513.0,1.0,471.0,1
908,908,-0.8186076943489267,-0.8,1,468.0,609.0,1.0,43.0,1
909,909,0.5544700479814217,0.6,0,453.0,769.0,0.0,768.0,1
910,910,0.5272822477380812,0.5,0,311.0,696.0,0.0,283.0,1
911,911,-0.8438554378899574,-0.8,1,494.0,556.0,1.0,860.0,1
912,912,0.7308011754969046,0.7,0,388.0,793.0,0.0,199.0,1
913,913,0.20207471876533267,0.2,0,365.0,829.0,0.0,1806.0,1
914,914,-0.5310163854323304,-0.5,1,485.0,679.0,1.0,1506.0,1
915,915,-0.7027607919359771,-0.7,1,439.0,736.0,1.0,865.0,1
916,916,0.71099283087936,0.7,0,477.0,793.0,0.0,800.0,1
917,917,-0.8991034516651382,-0.9,1,294.0,728.0,1.0,318.0,1
918,918,0.08080029576426395,0.1,0,444.0,886.0,1.0,2670.0,0
919,919,0.9519031909179145,1.0,0,471.0,932.0,0.0,867.0,1
920,920,-0.8047118945768605,-0.8,1,372.0,912.0,1.0,306.0,1
921,921,0.639539805876955,0.6,0,461.0,508.0,0.0,341.0,1
922,922,0.04639096495364803,0.0,0,352.0,508.0,1.0,1380.0,0
923,923,-0.23823957689467012,-0.2,1,266.0,533.0,1.0,1021.0,1
924,924,0.07783822516589334,0.1,0,329.0,882.0,1.0,3789.0,0
925,925,0.8647688483805485,0.9,0,250.0,693.0,0.0,577.0,1
926,926,0.5875821073676879,0.6,0,495.0,598.0,0.0,197.0,1
927,927,0.498017969165758,0.5,0,288.0,847.0,0.0,945.0,1
928,928,0.2665498334097647,0.3,0,260.0,830.0,0.0,3910.0,1
929,929,-0.9283152681291169,-0.9,1,402.0,602.0,1.0,246.0,1
930,930,0.4066103765578686,0.4,0,318.0,602.0,0.0,1930.0,1
931,931,0.5212884277201992,0.5,0,481.0,850.0,0.0,909.0,1
932,932,-0.34125498858476355,-0.3,1,334.0,749.0,1.0,1107.0,1
933,933,-0.03136246524988895,-0.0,1,297.0,917.0,1.0,946.0,1
934,934,-0.7089331404489674,-0.7,1,369.0,978.0,1.0,73.0,1
935,935,0.4132511790857174,0.4,0,349.0,811.0,0.0,930.0,1
936,936,-0.17200987205012108,-0.2,1,481.0,824.0,1.0,975.0,1
937,937,0.8360475741995201,0.8,0,416.0,709.0,0.0,995.0,1
938,938,-0.9611251190808885,-1.0,1,374.0,514.0,1.0,282.0,1
939,939,-0.25967164734961967,-0.3,1,463.0,686.0,1.0,3851.0,1
940,940,0.4165843016445685,0.4,0,478.0,862.0,0.0,620.0,1
941,941,-0.7428606666080295,-0.7,1,317.0,510.0,1.0,183.0,1
942,942,0.07182066878552762,0.1,0,391.0,511.0,1.0,278.0,0
943,943,0.679359218557041,0.7,0,339.0,948.0,0.0,623.0,1
944,944,-0.7118353524093115,-0.7,1,251.0,843.0,1.0,1086.0,1
945,945,0.2864086215601429,0.3,0,322.0,840.0,0.0,1678.0,1
946,946,0.7493539254398642,0.7,0,416.0,702.0,0.0,1102.0,1
947,947,0.7254417721646418,0.7,0,456.0,691.0,0.0,523.0,1
948,948,0.7210387502087545,0.7,0,435.0,801.0,0.0,494.0,1
949,949,-0.7148132560510285,-0.7,1,367.0,509.0,1.0,764.0,1
950,950,0.5730164291013324,0.6,0,391.0,901.0,0.0,528.0,1
951,951,-0.20868682372760627,-0.2,1,250.0,648.0,1.0,3992.0,1
952,952,0.04260181653453743,0.0,0,494.0,591.0,0.0,1265.0,1
953,953,0.38615017481789793,0.4,0,477.0,834.0,0.0,3689.0,1
954,954,-0.701440742551084,-0.7,1,341.0,985.0,1.0,644.0,1
955,955,0.8403385307302615,0.8,0,302.0,526.0,0.0,502.0,1
956,956,-0.2988327999819116,-0.3,1,290.0,672.0,1.0,1308.0,1
957,957,-0.15250436844378834,-0.2,1,350.0,640.0,1.0,3010.0,1
958,958,-0.09337124620878545,-0.1,1,495.0,761.0,1.0,254.0,1
959,959,-0.4153545450576379,-0.4,1,375.0,607.0,1.0,88.0,1
960,960,0.9726574124997271,1.0,0,258.0,601.0,0.0,1101.0,1
961,961,-0.2201813778502908,-0.2,1,426.0,925.0,1.0,1799.0,1
962,962,-0.6476583627921044,-0.6,1,289.0,872.0,1.0,1259.0,1
963,963,0.5788675991765142,0.6,0,305.0,787.0,0.0,348.0,1
964,964,0.34952301571812616,0.3,0,386.0,666.0,0.0,458.0,1
965,965,-0.6867384585411287,-0.7,1,364.0,540.0,1.0,536.0,1
966,966,-0.6207112364411755,-0.6,1,367.0,893.0,1.0,380.0,1
967,967,0.5948046403254497,0.6,0,256.0,739.0,0.0,1195.0,1
968,968,-0.7309282895934126,-0.7,1,289.0,599.0,1.0,1592.0,1
969,969,0.4188668836225806,0.4,0,349.0,664.0,0.0,1457.0,1
970,970,0.9225617576224523,0.9,0,374.0,726.0,0.0,470.0,1
971,971,-0.5721726943332464,-0.6,1,380.0,543.0,1.0,1207.0,1
972,972,-0.607712026056056,-0.6,1,459.0,930.0,1.0,981.0,1
973,973,-0.8652139416146738,-0.9,1,420.0,976.0,1.0,324.0,1
974,974,-0.8368740462855144,-0.8,1,467.0,776.0,1.0,267.0,1
975,975,-0.5032716097487682,-0.5,1,474.0,517.0,1.0,1249.0,1
976,976,0.20623492880157546,0.2,0,324.0,573.0,1.0,3963.0,0
977,977,0.05609055982878708,0.1,0,440.0,719.0,1.0,491.0,0
978,978,0.314111109561906,0.3,0,338.0,974.0,0.0,3688.0,1
979,979,0.8845802616860645,0.9,0,273.0,630.0,0.0,1307.0,1
980,980,0.24440381134545364,0.2,0,283.0,902.0,1.0,635.0,0
981,981,0.2423829432877609,0.2,0,441.0,768.0,0.0,1081.0,1
982,982,-0.14365975250579233,-0.1,1,372.0,753.0,1.0,1365.0,1
983,983,-0.4677724849609841,-0.5,1,330.0,719.0,1.0,1071.0,1
984,984,-0.04471200002083786,-0.0,1,399.0,573.0,1.0,2838.0,1
985,985,0.8834552240204114,0.9,0,268.0,647.0,0.0,985.0,1
986,986,-0.21089937734527187,-0.2,1,448.0,950.0,1.0,2742.0,1
987,987,0.13927664278064533,0.1,0,301.0,748.0,1.0,2201.0,0
988,988,0.5390346381543307,0.5,0,381.0,605.0,0.0,1104.0,1
989,989,-0.05718000254126787,-0.1,1,343.0,917.0,1.0,1610.0,1
990,990,0.0995332671960456,0.1,0,279.0,665.0,1.0,236.0,0
991,991,0.16008352605104448,0.2,0,448.0,753.0,1.0,2639.0,0
992,992,-0.43882081968269837,-0.4,1,489.0,644.0,1.0,247.0,1
993,993,-0.135121649187377,-0.1,1,347.0,731.0,1.0,222.0,1
994,994,-0.35594696479168353,-0.4,1,360.0,567.0,1.0,723.0,1
995,995,-0.9307722381680443,-0.9,1,255.0,650.0,1.0,165.0,1
996,996,0.1522123199205121,0.2,0,272.0,862.0,0.0,2906.0,1
997,997,-0.9274367257367662,-0.9,1,469.0,947.0,1.0,674.0,1
998,998,-0.525536109641813,-0.5,1,433.0,812.0,1.0,555.0,1
999,999,0.8115559076902497,0.8,0,403.0,773.0,0.0,1084.0,1
1000,1000,0.18099257601349716,0.2,0,422.0,516.0,1.0,302.0,0
1001,1001,0.22219523515784578,0.2,0,419.0,763.0,0.0,798.0,1
1002,1002,-0.1596988090003575,-0.2,1,343.0,685.0,1.0,3322.0,1
1003,1003,-0.9589263360563858,-1.0,1,384.0,814.0,1.0,412.0,1
1004,1004,0.13837355575007715,0.1,0,263.0,603.0,1.0,1964.0,0
1005,1005,0.03706378265706589,0.0,0,313.0,999.0,0.0,1808.0,1
1006,1006,0.13729428644684627,0.1,0,494.0,958.0,0.0,1248.0,1
1007,1007,0.8037238843907113,0.8,0,296.0,633.0,0.0,931.0,1
1008,1008,-0.543534143182899,-0.5,1,395.0,801.0,1.0,684.0,1
1009,1009,-0.2184628307448797,-0.2,1,251.0,535.0,0.0,744.0,0
1010,1010,0.7944767424555899,0.8,0,486.0,606.0,0.0,468.0,1
1011,1011,0.46044320244476045,0.5,0,379.0,694.0,0.0,697.0,1
1012,1012,-0.5618035721001908,-0.6,1,325.0,798.0,1.0,957.0,1
1013,1013,-0.18209179111001728,-0.2,1,469.0,880.0,1.0,2921.0,1
1014,1014,-0.5346667607682711,-0.5,1,317.0,903.0,1.0,1110.0,1
1015,1015,0.7379193521476359,0.7,0,344.0,913.0,0.0,713.0,1
1016,1016,-0.7252221823094489,-0.7,1,380.0,690.0,1.0,140.0,1
1017,1017,-0.18506026133818,-0.2,1,304.0,527.0,1.0,1799.0,1
1018,1018,-0.9867907433637664,-1.0,1,397.0,970.0,1.0,283.0,1
1019,1019,-0.6773500168833799,-0.7,1,495.0,696.0,1.0,589.0,1
1020,1020,-0.5927737245900673,-0.6,1,423.0,701.0,1.0,146.0,1
1021,1021,0.0975268846070334,0.1,0,367.0,725.0,1.0,3908.0,0
1022,1022,-0.3523450666915737,-0.4,1,415.0,787.0,1.0,658.0,1
1023,1023,0.7789759792210755,0.8,0,456.0,682.0,0.0,892.0,1
1024,1024,0.799376620963935,0.8,0,347.0,983.0,0.0,1900.0,1
1025,1025,-0.7073390110905675,-0.7,1,423.0,696.0,1.0,301.0,1
1026,1026,0.6761098799350651,0.7,0,306.0,679.0,0.0,1635.0,1
1027,1027,0.6504097971226508,0.7,0,291.0,738.0,0.0,441.0,1
1028,1028,-0.9448983889813911,-0.9,1,294.0,808.0,1.0,48.0,1
1029,1029,-0.9703582349381088,-1.0,1,261.0,731.0,1.0,528.0,1
1030,1030,-0.8771689306972164,-0.9,1,426.0,867.0,1.0,317.0,1
1031,1031,-0.7255799889401486,-0.7,1,405.0,800.0,1.0,195.0,1
1032,1032,-0.20998394195261616,-0.2,1,339.0,822.0,1.0,269.0,1
1033,1033,-0.6515468552857728,-0.7,1,332.0,982.0,1.0,896.0,1
1034,1034,0.4179336721079778,0.4,0,447.0,799.0,0.0,3754.0,1
1035,1035,0.009094180707412525,0.0,0,430.0,648.0,1.0,3482.0,0
1036,1036,-0.5696061717390679,-0.6,1,375.0,523.0,1.0,262.0,1
1037,1037,-0.2129081720914059,-0.2,1,262.0,933.0,1.0,2165.0,1
1038,1038,0.6071925867548018,0.6,0,307.0,569.0,0.0,1214.0,1
1039,1039,-0.7357374687801281,-0.7,1,346.0,699.0,1.0,85.0,1
1040,1040,-0.8634762366862725,-0.9,1,340.0,677.0,1.0,1453.0,1
1041,1041,0.7349333061520975,0.7,0,366.0,779.0,0.0,1185.0,1
1042,1042,-0.511136566718752,-0.5,1,364.0,855.0,1.0,51.0,1
1043,1043,-0.6024599743647037,-0.6,1,265.0,574.0,1.0,291.0,1
1044,1044,-0.7184121853562537,-0.7,1,340.0,732.0,1.0,438.0,1
1045,1045,-0.0833047344239557,-0.1,1,366.0,976.0,1.0,938.0,1
1046,1046,-0.8947171887305259,-0.9,1,472.0,517.0,1.0,301.0,1
1047,1047,0.05198564790381077,0.1,0,291.0,772.0,0.0,247.0,1
1048,1048,0.6332445526836028,0.6,0,283.0,653.0,0.0,274.0,1
1049,1049,-0.9468097869153422,-0.9,1,254.0,867.0,1.0,239.0,1
1050,1050,0.5486592492740074,0.5,0,401.0,661.0,0.0,658.0,1
1051,1051,-0.21409912830793765,-0.2,1,427.0,934.0,1.0,729.0,1
1052,1052,0.1070779250945666,0.1,0,331.0,563.0,0.0,4106.0,1
1053,1053,0.9290648132940327,0.9,0,333.0,940.0,0.0,297.0,1
1054,1054,0.953449186556028,1.0,0,406.0,880.0,0.0,404.0,1
1055,1055,-0.12541114735479475,-0.1,1,264.0,500.0,1.0,1116.0,1
1056,1056,-0.6417360148241193,-0.6,1,429.0,651.0,1.0,550.0,1
1057,1057,0.1724292734983568,0.2,0,451.0,622.0,0.0,1937.0,1
1058,1058,-0.595780217872222,-0.6,1,261.0,805.0,1.0,114.0,1
1059,1059,0.6026078911349881,0.6,0,457.0,565.0,0.0,1388.0,1
1060,1060,-0.22466919368911875,-0.2,1,292.0,697.0,1.0,341.0,1
1061,1061,0.8170990116477528,0.8,0,473.0,910.0,0.0,1517.0,1
1062,1062,0.5086788377415294,0.5,0,400.0,758.0,0.0,712.0,1
1063,1063,0.04243085245695055,0.0,0,282.0,547.0,1.0,911.0,0
1064,1064,-6.840719924539052e-05,-0.0,1,382.0,513.0,1.0,2105.0,1
1065,1065,0.7390520678055335,0.7,0,339.0,526.0,0.0,1055.0,1
1066,1066,0.23567098389154473,0.2,0,313.0,936.0,0.0,1171.0,1
1067,1067,-0.6072709888157102,-0.6,1,454.0,730.0,1.0,286.0,1
1068,1068,-0.6699931343759589,-0.7,1,442.0,759.0,1.0,799.0,1
1069,1069,-0.20450019275196962,-0.2,1,303.0,704.0,1.0,2553.0,1
1070,1070,0.9940710476671981,1.0,0,274.0,841.0,0.0,145.0,1
1071,1071,0.40212404340741714,0.4,0,339.0,554.0,0.0,2877.0,1
1072,1072,0.5286523587876812,0.5,0,440.0,703.0,0.0,2907.0,1
1073,1073,0.07229480098864483,0.1,0,416.0,751.0,0.0,3623.0,1
1074,1074,0.16523188235489816,0.2,0,480.0,953.0,1.0,3057.0,0
1075,1075,-0.8118905890692776,-0.8,1,457.0,888.0,1.0,395.0,1
1076,1076,0.2682844069014625,0.3,0,417.0,574.0,0.0,1099.0,1
1077,1077,-0.5674920375435843,-0.6,1,439.0,997.0,1.0,264.0,1
1078,1078,0.0453841220029052,0.0,0,386.0,510.0,0.0,74.0,1
1079,1079,0.8999657091735942,0.9,0,375.0,563.0,0.0,212.0,1
1080,1080,0.429888164030918,0.4,0,474.0,659.0,0.0,767.0,1
1081,1081,-0.9852367984512558,-1.0,1,443.0,899.0,1.0,428.0,1
1082,1082,0.2624665083121158,0.3,0,456.0,595.0,0.0,3269.0,1
1083,1083,0.6593263466404506,0.7,0,475.0,836.0,0.0,939.0,1
1084,1084,0.7688528688249416,0.8,0,477.0,901.0,0.0,582.0,1
1085,1085,-0.46775070564564647,-0.5,1,408.0,542.0,1.0,920.0,1
1086,1086,-0.66293265716444,-0.7,1,343.0,953.0,1.0,304.0,1
1087,1087,-0.4874950122596138,-0.5,1,487.0,669.0,1.0,314.0,1
1088,1088,0.8796962055709097,0.9,0,464.0,919.0,0.0,307.0,1
1089,1089,-0.4033228775660216,-0.4,1,408.0,561.0,1.0,521.0,1
1090,1090,0.06868336839503097,0.1,0,448.0,887.0,0.0,1755.0,1
1091,1091,0.21867423293034327,0.2,0,480.0,760.0,0.0,1520.0,1
1092,1092,0.03788698271145963,0.0,0,291.0,594.0,1.0,1525.0,0
1093,1093,-0.8503790982726527,-0.9,1,331.0,915.0,1.0,414.0,1
1094,1094,-0.32594771567087677,-0.3,1,455.0,780.0,1.0,965.0,1
1095,1095,0.19911983981162584,0.2,0,276.0,712.0,1.0,1162.0,0
1096,1096,0.3927884735156537,0.4,0,368.0,565.0,0.0,1427.0,1
1097,1097,0.34246702078183877,0.3,0,447.0,914.0,0.0,219.0,1
1098,1098,-0.08785535607617279,-0.1,1,254.0,562.0,0.0,174.0,0
1099,1099,0.8589559567177978,0.9,0,274.0,630.0,0.0,176.0,1
1100,1100,-0.5240337509262736,-0.5,1,475.0,820.0,1.0,715.0,1
1101,1101,0.7312509834159078,0.7,0,394.0,700.0,0.0,236.0,1
1102,1102,-0.49503061654549585,-0.5,1,250.0,726.0,1.0,674.0,1
1103,1103,0.5411988836167032,0.5,0,456.0,976.0,0.0,478.0,1
1104,1104,0.3055383518124759,0.3,0,393.0,920.0,0.0,667.0,1
1105,1105,-0.6170878513834812,-0.6,1,446.0,835.0,1.0,169.0,1
1106,1106,-0.7665145925673775,-0.8,1,297.0,856.0,1.0,517.0,1
1107,1107,-0.34818242632268515,-0.3,1,412.0,780.0,1.0,798.0,1
1108,1108,-0.9483156189879758,-0.9,1,396.0,591.0,1.0,93.0,1
1109,1109,-0.7206877747117648,-0.7,1,424.0,569.0,1.0,467.0,1
1110,1110,0.8556257806437058,0.9,0,328.0,922.0,0.0,430.0,1
1111,1111,0.30065241409352517,0.3,0,465.0,587.0,0.0,3478.0,1
1112,1112,0.36385123930312946,0.4,0,344.0,632.0,0.0,734.0,1
1113,1113,0.5949262498743759,0.6,0,400.0,716.0,0.0,684.0,1
1114,1114,0.3551243071017771,0.4,0,393.0,545.0,1.0,1022.0,0
1115,1115,-0.8365029211312904,-0.8,1,496.0,548.0,1.0,196.0,1
1116,1116,0.38463750192961155,0.4,0,426.0,872.0,0.0,1422.0,1
1117,1117,0.3740934139223051,0.4,0,385.0,877.0,0.0,2598.0,1
1118,1118,0.1468829226738284,0.1,0,373.0,978.0,0.0,539.0,1
1119,1119,-0.6688209348818077,-0.7,1,415.0,726.0,1.0,439.0,1
1120,1120,0.8532713719747844,0.9,0,369.0,968.0,0.0,613.0,1
1121,1121,0.1260952095510497,0.1,0,426.0,720.0,1.0,734.0,0
1122,1122,0.5282671773510168,0.5,0,448.0,899.0,0.0,1253.0,1
1123,1123,0.4288251767674538,0.4,0,290.0,905.0,1.0,385.0,0
1124,1124,0.4830092160687245,0.5,0,269.0,977.0,0.0,844.0,1
1125,1125,0.23578452878080447,0.2,0,293.0,849.0,1.0,2488.0,0
1126,1126,0.06383172760258793,0.1,0,455.0,909.0,1.0,436.0,0
1127,1127,-0.5630759747066838,-0.6,1,394.0,688.0,1.0,1688.0,1
1128,1128,0.8437457271373323,0.8,0,268.0,906.0,0.0,346.0,1
1129,1129,-0.852249515829969,-0.9,1,377.0,522.0,1.0,101.0,1
1130,1130,0.21048372249666825,0.2,0,497.0,517.0,1.0,2346.0,0
1131,1131,-0.495928703122716,-0.5,1,427.0,610.0,1.0,443.0,1
1132,1132,-0.9622563393809538,-1.0,1,445.0,978.0,1.0,287.0,1
1133,1133,0.33155982730632205,0.3,0,318.0,542.0,0.0,1780.0,1
1134,1134,-0.5936255881102876,-0.6,1,367.0,814.0,1.0,49.0,1
1135,1135,-0.8623890366412885,-0.9,1,328.0,554.0,1.0,288.0,1
1136,1136,-0.33032393267842974,-0.3,1,328.0,734.0,1.0,2738.0,1
1137,1137,-0.6256951054904634,-0.6,1,298.0,865.0,1.0,547.0,1
1138,1138,0.9212128040117873,0.9,0,253.0,608.0,0.0,349.0,1
1139,1139,-0.6388306358835412,-0.6,1,293.0,541.0,1.0,1216.0,1
1140,1140,-0.13705435011221434,-0.1,1,300.0,763.0,1.0,3557.0,1
1141,1141,0.8550256096499289,0.9,0,461.0,706.0,0.0,193.0,1
1142,1142,0.8629685585031057,0.9,0,444.0,678.0,0.0,428.0,1
1143,1143,0.4628631948422428,0.5,0,484.0,742.0,1.0,174.0,0
1144,1144,-0.32909310408028114,-0.3,1,435.0,515.0,1.0,1400.0,1
1145,1145,-0.18146210557962394,-0.2,1,344.0,749.0,1.0,3907.0,1
1146,1146,-0.1512264758630275,-0.2,1,340.0,960.0,1.0,1230.0,1
1147,1147,0.5639205001909862,0.6,0,324.0,701.0,0.0,1335.0,1
1148,1148,-0.5202971248272359,-0.5,1,351.0,584.0,1.0,405.0,1
1149,1149,0.4291150053853454,0.4,0,363.0,588.0,0.0,219.0,1
1150,1150,0.5713034867471192,0.6,0,281.0,725.0,0.0,1334.0,1
1151,1151,-0.7754610538142621,-0.8,1,374.0,931.0,1.0,985.0,1
1152,1152,0.6480743761070644,0.6,0,296.0,558.0,0.0,316.0,1
1153,1153,0.608621475853286,0.6,0,417.0,566.0,0.0,577.0,1
1154,1154,-0.8269638338924148,-0.8,1,286.0,655.0,1.0,179.0,1
1155,1155,0.026122304967330257,0.0,0,333.0,604.0,1.0,1883.0,0
1156,1156,0.6603319429091612,0.7,0,266.0,817.0,0.0,987.0,1
1157,1157,-0.8841408847522714,-0.9,1,397.0,532.0,1.0,301.0,1
1158,1158,0.8035326497681048,0.8,0,466.0,535.0,0.0,179.0,1
1159,1159,-0.8790668629669334,-0.9,1,401.0,920.0,1.0,229.0,1
1160,1160,0.887936692497814,0.9,0,255.0,553.0,0.0,442.0,1
1161,1161,-0.40963685836518104,-0.4,1,257.0,707.0,1.0,146.0,1
1162,1162,-0.8759017621783465,-0.9,1,458.0,563.0,1.0,139.0,1
1163,1163,0.6026493695556356,0.6,0,466.0,964.0,0.0,560.0,1
1164,1164,-0.6080621976060001,-0.6,1,366.0,748.0,1.0,636.0,1
1165,1165,0.26588826878610905,0.3,0,355.0,813.0,0.0,1562.0,1
1166,1166,0.9373727177076516,0.9,0,405.0,799.0,0.0,326.0,1
1167,1167,-0.5217494303645107,-0.5,1,313.0,620.0,1.0,2097.0,1
1168,1168,0.8352979153904885,0.8,0,319.0,712.0,0.0,609.0,1
1169,1169,0.31894771814038303,0.3,0,486.0,685.0,0.0,449.0,1
1170,1170,-0.36945374619165716,-0.4,1,440.0,822.0,1.0,358.0,1
1171,1171,-0.48643293027385437,-0.5,1,388.0,679.0,1.0,663.0,1
1172,1172,-0.2562443629243447,-0.3,1,392.0,805.0,0.0,1743.0,0
1173,1173,0.7399173045797514,0.7,0,433.0,598.0,0.0,1089.0,1
1174,1174,0.2873502344633436,0.3,0,255.0,809.0,0.0,1636.0,1
1175,1175,0.5629232001418032,0.6,0,414.0,576.0,0.0,1050.0,1
1176,1176,-0.8393400492827523,-0.8,1,491.0,917.0,1.0,372.0,1
1177,1177,-0.9660823713436397,-1.0,1,349.0,983.0,1.0,308.0,1
1178,1178,-0.06274592605917628,-0.1,1,375.0,874.0,1.0,271.0,1
1179,1179,-0.5828833234772481,-0.6,1,415.0,724.0,1.0,1641.0,1
1180,1180,-0.8507624937375526,-0.9,1,498.0,930.0,1.0,972.0,1
1181,1181,-0.3866169638568375,-0.4,1,402.0,626.0,0.0,552.0,0
1182,1182,0.14285917056919195,0.1,0,420.0,628.0,1.0,3952.0,0
1183,1183,0.8058654480984013,0.8,0,403.0,861.0,0.0,876.0,1
1184,1184,-0.5618883204490643,-0.6,1,304.0,866.0,1.0,1720.0,1
1185,1185,-0.6903172635090455,-0.7,1,450.0,570.0,1.0,250.0,1
1186,1186,0.7652774918438479,0.8,0,339.0,717.0,0.0,704.0,1
1187,1187,0.11729040784806788,0.1,0,421.0,616.0,0.0,183.0,1
1188,1188,-0.19711965317003255,-0.2,1,330.0,680.0,1.0,440.0,1
1189,1189,0.6347395717452358,0.6,0,278.0,791.0,0.0,2731.0,1
1190,1190,0.6854221430425038,0.7,0,418.0,714.0,0.0,1678.0,1
1191,1191,-0.36130874277648295,-0.4,1,388.0,572.0,1.0,1650.0,1
1192,1192,0.4521755727428183,0.5,0,372.0,943.0,0.0,815.0,1
1193,1193,-0.6649734394905085,-0.7,1,491.0,700.0,1.0,189.0,1
1194,1194,0.2320785426700842,0.2,0,429.0,738.0,1.0,313.0,0
1195,1195,-0.24110765218892172,-0.2,1,380.0,916.0,1.0,924.0,1
1196,1196,-0.2735885421122708,-0.3,1,356.0,847.0,1.0,677.0,1
1197,1197,0.845753381847949,0.8,0,453.0,708.0,0.0,419.0,1
1198,1198,-0.5737237965060726,-0.6,1,389.0,755.0,1.0,396.0,1
1199,1199,0.7061995968493948,0.7,0,454.0,707.0,0.0,309.0,1
1200,1200,0.9241281505770378,0.9,0,313.0,678.0,0.0,1269.0,1
1201,1201,0.6741609171622394,0.7,0,454.0,860.0,0.0,166.0,1
1202,1202,0.5020554019952259,0.5,0,362.0,699.0,0.0,1059.0,1
1203,1203,0.744803599008748,0.7,0,469.0,538.0,0.0,543.0,1
1204,1204,-0.3337935935241132,-0.3,1,479.0,511.0,1.0,210.0,1
1205,1205,-0.8144954857972417,-0.8,1,339.0,809.0,1.0,212.0,1
1206,1206,-0.28590905476998696,-0.3,1,255.0,835.0,1.0,490.0,1
1207,1207,-0.49671520351197573,-0.5,1,337.0,954.0,1.0,379.0,1
1208,1208,0.5764453881978893,0.6,0,269.0,571.0,0.0,260.0,1
1209,1209,-0.2642877995063424,-0.3,1,384.0,617.0,1.0,619.0,1
1210,1210,0.011870852601579385,0.0,0,415.0,581.0,0.0,1604.0,1
1211,1211,0.12477456142406829,0.1,0,331.0,687.0,0.0,3982.0,1
1212,1212,0.720555452963477,0.7,0,307.0,841.0,0.0,272.0,1
1213,1213,0.6989995477229838,0.7,0,395.0,550.0,0.0,255.0,1
1214,1214,0.20004260770600846,0.2,0,434.0,554.0,0.0,1752.0,1
1215,1215,0.5084665273632043,0.5,0,416.0,775.0,0.0,189.0,1
1216,1216,0.7649080409850484,0.8,0,299.0,897.0,0.0,2354.0,1
1217,1217,0.2124703458763555,0.2,0,369.0,636.0,1.0,745.0,0
1218,1218,-0.334189121182616,-0.3,1,272.0,531.0,1.0,67.0,1
1219,1219,0.04661877940212156,0.0,0,454.0,820.0,0.0,3726.0,1
1220,1220,-0.49156670479481024,-0.5,1,386.0,547.0,1.0,167.0,1
1221,1221,0.3840489547624928,0.4,0,347.0,545.0,0.0,718.0,1
1222,1222,0.8544540856891774,0.9,0,259.0,734.0,0.0,807.0,1
1223,1223,-0.7848796788187107,-0.8,1,436.0,743.0,1.0,341.0,1
1224,1224,-0.6828920792578539,-0.7,1,384.0,923.0,1.0,573.0,1
1225,1225,0.2774730146369595,0.3,0,311.0,669.0,0.0,2650.0,1
1226,1226,-0.16839983199401165,-0.2,1,317.0,812.0,1.0,551.0,1
1227,1227,0.13114947513501996,0.1,0,382.0,935.0,0.0,1093.0,1
1228,1228,0.4998454539199808,0.5,0,381.0,804.0,0.0,595.0,1
1229,1229,-0.3550014635489125,-0.4,1,432.0,517.0,1.0,151.0,1
1230,1230,0.9759415313081132,1.0,0,499.0,707.0,0.0,394.0,1
1231,1231,-0.3039711742182636,-0.3,1,344.0,518.0,1.0,898.0,1
1232,1232,-0.4468262825247096,-0.4,1,261.0,570.0,1.0,339.0,1
1233,1233,-0.5804887250013051,-0.6,1,345.0,701.0,1.0,1974.0,1
1234,1234,0.08982022367496967,0.1,0,326.0,693.0,1.0,2871.0,0
1235,1235,-0.5895004604153706,-0.6,1,310.0,836.0,1.0,44.0,1
1236,1236,-0.24884536924846912,-0.2,1,352.0,884.0,1.0,674.0,1
1237,1237,0.8739492116194651,0.9,0,440.0,994.0,0.0,426.0,1
1238,1238,-0.1771374452020018,-0.2,1,310.0,726.0,1.0,174.0,1
1239,1239,0.12436619452573106,0.1,0,449.0,712.0,0.0,1939.0,1
1240,1240,-0.6151120737841318,-0.6,1,454.0,585.0,1.0,571.0,1
1241,1241,-0.6850328054780492,-0.7,1,268.0,770.0,1.0,922.0,1
1242,1242,0.521628171445303,0.5,0,302.0,905.0,0.0,583.0,1
1243,1243,0.4307063790431813,0.4,0,446.0,874.0,0.0,720.0,1
1244,1244,0.7006661151313045,0.7,0,436.0,867.0,0.0,1157.0,1
1245,1245,0.07636339098512246,0.1,0,409.0,603.0,1.0,3308.0,0
1246,1246,-0.7863427985212403,-0.8,1,490.0,629.0,1.0,351.0,1
1247,1247,0.5966194882642606,0.6,0,412.0,668.0,0.0,1300.0,1
1248,1248,0.2719547779040854,0.3,0,320.0,744.0,0.0,1316.0,1
1249,1249,0.23720777324658182,0.2,0,373.0,839.0,0.0,788.0,1
1250,1250,-0.20107431498052808,-0.2,1,477.0,764.0,1.0,1819.0,1
1251,1251,-0.3382247144925339,-0.3,1,438.0,553.0,1.0,939.0,1
1252,1252,-0.054731096272267354,-0.1,1,494.0,547.0,1.0,3959.0,1
1253,1253,0.4653715106645111,0.5,0,390.0,972.0,1.0,3638.0,0
1254,1254,-0.34605957851445646,-0.3,1,283.0,579.0,1.0,1858.0,1
1255,1255,0.1021632356825688,0.1,0,276.0,643.0,0.0,3611.0,1
1256,1256,-0.8777276899201361,-0.9,1,383.0,664.0,1.0,563.0,1
1257,1257,0.4184098843341657,0.4,0,331.0,654.0,0.0,745.0,1
1258,1258,0.34637730910289144,0.3,0,274.0,605.0,1.0,4121.0,0
1259,1259,-0.19106237144533833,-0.2,1,318.0,516.0,1.0,716.0,1
1260,1260,0.8633934921373214,0.9,0,267.0,559.0,0.0,304.0,1
1261,1261,0.3807196016790644,0.4,0,403.0,851.0,0.0,866.0,1
1262,1262,-0.65152795367288,-0.7,1,485.0,796.0,1.0,949.0,1
1263,1263,0.03837250357194821,0.0,0,466.0,720.0,1.0,2294.0,0
1264,1264,0.3294576382576875,0.3,0,421.0,595.0,0.0,604.0,1
1265,1265,-0.20063032488356836,-0.2,1,447.0,750.0,1.0,63.0,1
1266,1266,0.5099328510925398,0.5,0,473.0,924.0,0.0,263.0,1
1267,1267,0.3361814503614806,0.3,0,413.0,602.0,0.0,535.0,1
1268,1268,-0.08144841402134162,-0.1,1,380.0,566.0,1.0,324.0,1
1269,1269,-0.9139553810567735,-0.9,1,251.0,578.0,1.0,261.0,1
1270,1270,0.11787677200987301,0.1,0,340.0,968.0,1.0,832.0,0
1271,1271,0.9892259435478332,1.0,0,288.0,818.0,0.0,1084.0,1
1272,1272,0.8356456112001418,0.8,0,492.0,824.0,0.0,324.0,1
1273,1273,0.3014025960897264,0.3,0,283.0,943.0,0.0,1174.0,1
1274,1274,-0.046241860698551296,-0.0,1,370.0,828.0,1.0,3742.0,1
1275,1275,-0.8177355551618333,-0.8,1,358.0,796.0,1.0,76.0,1
1276,1276,-0.05588497753718702,-0.1,1,332.0,542.0,1.0,506.0,1
1277,1277,0.5576422907357865,0.6,0,309.0,741.0,0.0,1000.0,1
1278,1278,-0.7353799752570278,-0.7,1,376.0,500.0,1.0,184.0,1
1279,1279,0.33607948944721233,0.3,0,399.0,502.0,0.0,1039.0,1
1280,1280,-0.4561694074808351,-0.5,1,453.0,813.0,1.0,1124.0,1
1281,1281,0.6986128144931083,0.7,0,288.0,515.0,0.0,1567.0,1
1282,1282,0.5112120518273204,0.5,0,314.0,633.0,0.0,333.0,1
1283,1283,0.5612149595772453,0.6,0,325.0,701.0,0.0,1584.0,1
1284,1284,-0.7752528438484614,-0.8,1,397.0,884.0,1.0,169.0,1
1285,1285,-0.19748604678434267,-0.2,1,252.0,789.0,1.0,969.0,1
1286,1286,0.252453109406958,0.3,0,405.0,774.0,0.0,731.0,1
1287,1287,-0.6248560812000845,-0.6,1,474.0,598.0,1.0,88.0,1
1288,1288,0.3152851676949473,0.3,0,465.0,784.0,0.0,3261.0,1
1289,1289,-0.04649845694126076,-0.0,1,476.0,501.0,1.0,-217.0,1
1290,1290,0.8735464281178613,0.9,0,397.0,770.0,0.0,773.0,1
1291,1291,-0.8970902993035701,-0.9,1,481.0,616.0,1.0,803.0,1
1292,1292,0.4473499619648207,0.4,0,464.0,815.0,0.0,1711.0,1
1293,1293,0.7259886024980922,0.7,0,341.0,946.0,0.0,1493.0,1
1294,1294,0.38786362490362847,0.4,0,279.0,722.0,1.0,219.0,0
1295,1295,-0.0768981289430184,-0.1,1,423.0,983.0,1.0,1624.0,1
1296,1296,-0.9624493176818083,-1.0,1,283.0,885.0,1.0,182.0,1
1297,1297,-0.10185875829852242,-0.1,1,458.0,598.0,1.0,224.0,1
1298,1298,0.007091859172509096,0.0,0,258.0,647.0,1.0,1085.0,0
1299,1299,0.9568366633025605,1.0,0,313.0,853.0,0.0,474.0,1
1300,1300,-0.12841692441707186,-0.1,1,324.0,908.0,1.0,628.0,1
1301,1301,0.7857569038694561,0.8,0,470.0,561.0,0.0,879.0,1
1302,1302,0.1302003908213929,0.1,0,465.0,878.0,1.0,3657.0,0
1303,1303,0.8403418076992624,0.8,0,494.0,600.0,0.0,176.0,1
1304,1304,-0.05922585248219603,-0.1,1,287.0,696.0,1.0,2347.0,1
1305,1305,-0.6952002285605967,-0.7,1,473.0,562.0,1.0,565.0,1
1306,1306,-0.4436809798540178,-0.4,1,347.0,668.0,1.0,775.0,1
1307,1307,0.12113755839024032,0.1,0,340.0,731.0,0.0,3929.0,1
1308,1308,-0.30149192235043976,-0.3,1,428.0,913.0,1.0,799.0,1
1309,1309,-0.2647445379205027,-0.3,1,385.0,939.0,0.0,1466.0,0
1310,1310,-0.785786005265815,-0.8,1,254.0,754.0,1.0,242.0,1
1311,1311,-0.5549672869364237,-0.6,1,465.0,699.0,1.0,986.0,1
1312,1312,-0.19957053596221952,-0.2,1,303.0,680.0,1.0,317.0,1
1313,1313,-0.42184264676663896,-0.4,1,319.0,564.0,1.0,3337.0,1
1314,1314,-0.8244800034752131,-0.8,1,405.0,969.0,1.0,246.0,1
1315,1315,0.8568464137840339,0.9,0,360.0,642.0,0.0,198.0,1
1316,1316,0.7561741890464888,0.8,0,360.0,956.0,0.0,684.0,1
1317,1317,-0.5811364007850066,-0.6,1,370.0,536.0,1.0,1474.0,1
1318,1318,-0.4042973325170909,-0.4,1,343.0,807.0,1.0,3130.0,1
1319,1319,-0.5424849039284256,-0.5,1,276.0,573.0,1.0,711.0,1
1320,1320,0.4108524246037075,0.4,0,309.0,747.0,0.0,1034.0,1
1321,1321,0.8179156083306052,0.8,0,265.0,663.0,0.0,562.0,1
1322,1322,0.16505807876715162,0.2,0,296.0,600.0,1.0,594.0,0
1323,1323,-0.15454199988945616,-0.2,1,423.0,792.0,1.0,975.0,1
1324,1324,-0.010553609944903064,-0.0,1,386.0,871.0,0.0,3743.0,0
1325,1325,-0.7445556918672727,-0.7,1,351.0,833.0,1.0,196.0,1
1326,1326,0.8399710551885791,0.8,0,467.0,965.0,0.0,318.0,1
1327,1327,-0.5307800674770489,-0.5,1,386.0,702.0,1.0,1982.0,1
1328,1328,-0.4084068111315491,-0.4,1,496.0,630.0,1.0,244.0,1
1329,1329,0.977742441393721,1.0,0,484.0,828.0,0.0,728.0,1
1330,1330,-0.3535408975204719,-0.4,1,431.0,888.0,0.0,101.0,0
1331,1331,0.3910353830419593,0.4,0,376.0,741.0,0.0,833.0,1
1332,1332,0.4214113164478981,0.4,0,426.0,946.0,0.0,248.0,1
1333,1333,-0.5277061686524684,-0.5,1,323.0,635.0,1.0,822.0,1
1334,1334,0.4861978886063385,0.5,0,494.0,806.0,1.0,1000.0,0
1335,1335,0.14584769102691242,0.1,0,409.0,647.0,1.0,3634.0,0
1336,1336,-0.931993833083705,-0.9,1,351.0,692.0,1.0,937.0,1
1337,1337,0.24678887659328508,0.2,0,280.0,864.0,0.0,596.0,1
1338,1338,0.0012684052069327212,0.0,0,389.0,854.0,1.0,3757.0,0
1339,1339,0.13107595036816155,0.1,0,303.0,726.0,1.0,3971.0,0
1340,1340,0.7060766184178269,0.7,0,302.0,539.0,0.0,219.0,1
1341,1341,0.04067070846121279,0.0,0,361.0,615.0,1.0,184.0,0
1342,1342,0.6683177704831045,0.7,0,421.0,815.0,0.0,714.0,1
1343,1343,-0.7797721925462895,-0.8,1,406.0,612.0,1.0,212.0,1
1344,1344,0.14406571921543243,0.1,0,314.0,857.0,0.0,339.0,1
1345,1345,-0.20187837126026031,-0.2,1,356.0,651.0,1.0,963.0,1
1346,1346,-0.013052978052056963,-0.0,1,337.0,579.0,0.0,474.0,0
1347,1347,0.34836658346455707,0.3,0,389.0,833.0,0.0,1468.0,1
1348,1348,-0.7857950190619916,-0.8,1,409.0,634.0,1.0,127.0,1
1349,1349,-0.0039603918171282615,-0.0,1,299.0,630.0,1.0,4071.0,1
1350,1350,-0.2574875954450908,-0.3,1,292.0,862.0,1.0,396.0,1
1351,1351,-0.23725794150076163,-0.2,1,255.0,812.0,1.0,1073.0,1
1352,1352,0.8551304975482874,0.9,0,476.0,894.0,0.0,870.0,1
1353,1353,-0.12058422261924795,-0.1,1,300.0,578.0,1.0,1552.0,1
1354,1354,0.7928640445531152,0.8,0,475.0,851.0,0.0,384.0,1
1355,1355,-0.09228718800126745,-0.1,1,480.0,666.0,0.0,1454.0,0
1356,1356,-0.5456984340843865,-0.5,1,440.0,788.0,1.0,532.0,1
1357,1357,0.13909512449019856,0.1,0,382.0,782.0,0.0,746.0,1
1358,1358,-0.9526157320249882,-1.0,1,471.0,979.0,1.0,130.0,1
1359,1359,0.9825111457446112,1.0,0,384.0,924.0,0.0,432.0,1
1360,1360,-0.5083403224351675,-0.5,1,377.0,508.0,1.0,1295.0,1
1361,1361,0.5499578904482296,0.5,0,271.0,785.0,0.0,1404.0,1
1362,1362,0.6871358117434048,0.7,0,416.0,942.0,0.0,412.0,1
1363,1363,0.05612302835935523,0.1,0,326.0,656.0,1.0,3708.0,0
1364,1364,0.44771635750749184,0.4,0,305.0,675.0,0.0,370.0,1
1365,1365,0.1777008514680658,0.2,0,348.0,719.0,1.0,3933.0,0
1366,1366,-0.5685215735815972,-0.6,1,413.0,698.0,1.0,449.0,1
1367,1367,-0.35196749776799363,-0.4,1,273.0,658.0,1.0,1179.0,1
1368,1368,-0.48342161028781216,-0.5,1,297.0,500.0,1.0,113.0,1
1369,1369,0.9005161650780797,0.9,0,299.0,521.0,0.0,310.0,1
1370,1370,0.8069578868441012,0.8,0,332.0,578.0,0.0,120.0,1
1371,1371,0.4584816064096442,0.5,0,279.0,652.0,0.0,989.0,1
1372,1372,-0.01689745550598265,-0.0,1,489.0,736.0,1.0,1345.0,1
1373,1373,0.3456205832566279,0.3,0,470.0,978.0,0.0,522.0,1
1374,1374,-0.974682260713519,-1.0,1,414.0,616.0,1.0,650.0,1
1375,1375,-0.23476302516945147,-0.2,1,294.0,651.0,1.0,1835.0,1
1376,1376,-0.44018002629922814,-0.4,1,376.0,887.0,1.0,847.0,1
1377,1377,0.27416657562309843,0.3,0,319.0,890.0,0.0,591.0,1
1378,1378,-0.5633708876962091,-0.6,1,474.0,951.0,1.0,615.0,1
1379,1379,-0.6561686285912776,-0.7,1,272.0,689.0,1.0,619.0,1
1380,1380,-0.5839356911084657,-0.6,1,438.0,539.0,1.0,333.0,1
1381,1381,0.5922102780821761,0.6,0,322.0,577.0,0.0,741.0,1
1382,1382,-0.8871383165481284,-0.9,1,383.0,902.0,1.0,615.0,1
1383,1383,0.2726450921386838,0.3,0,456.0,938.0,0.0,1716.0,1
1384,1384,-0.3318687479226232,-0.3,1,490.0,663.0,1.0,517.0,1
1385,1385,0.7934143344641769,0.8,0,314.0,751.0,0.0,615.0,1
1386,1386,-0.737984580949095,-0.7,1,452.0,900.0,1.0,408.0,1
1387,1387,0.562767801135398,0.6,0,475.0,658.0,0.0,2997.0,1
1388,1388,0.22413151841532097,0.2,0,462.0,664.0,0.0,644.0,1
1389,1389,-0.9418947910456836,-0.9,1,352.0,676.0,1.0,702.0,1
1390,1390,-0.9188009309263343,-0.9,1,257.0,560.0,1.0,213.0,1
1391,1391,0.10332572820476638,0.1,0,437.0,604.0,1.0,1309.0,0
1392,1392,-0.32417488804403183,-0.3,1,256.0,806.0,1.0,188.0,1
1393,1393,-0.7336064024972133,-0.7,1,413.0,685.0,1.0,542.0,1
1394,1394,-0.004609862007101562,-0.0,1,495.0,783.0,1.0,2342.0,1
1395,1395,0.354967098333433,0.4,0,310.0,900.0,0.0,530.0,1
1396,1396,0.42278215779450146,0.4,0,360.0,974.0,0.0,1096.0,1
1397,1397,0.223371821001215,0.2,0,399.0,583.0,0.0,78.0,1
1398,1398,-0.10097828394236186,-0.1,1,351.0,619.0,1.0,2830.0,1
1399,1399,0.11077600285342393,0.1,0,409.0,691.0,1.0,1710.0,0
1400,1400,0.2161217852458608,0.2,0,333.0,586.0,0.0,1881.0,1
1401,1401,-0.8733799126212403,-0.9,1,458.0,668.0,1.0,384.0,1
1402,1402,0.9044843152033546,0.9,0,457.0,695.0,0.0,348.0,1
1403,1403,0.504157902188493,0.5,0,263.0,960.0,0.0,2137.0,1
1404,1404,-0.8769418515301131,-0.9,1,443.0,571.0,1.0,1306.0,1
1405,1405,0.8880373919040447,0.9,0,277.0,901.0,0.0,222.0,1
1406,1406,0.47069335132454504,0.5,0,392.0,985.0,0.0,1153.0,1
1407,1407,0.6208805902040642,0.6,0,293.0,797.0,0.0,440.0,1
1408,1408,0.04287752374552545,0.0,0,306.0,864.0,1.0,1050.0,0
1409,1409,0.23396704792218226,0.2,0,478.0,773.0,0.0,719.0,1
1410,1410,0.6380780505406292,0.6,0,492.0,898.0,0.0,390.0,1
1411,1411,-0.3800430895441984,-0.4,1,405.0,745.0,1.0,2190.0,1
1412,1412,-0.48789601297636453,-0.5,1,419.0,778.0,1.0,103.0,1
1413,1413,0.9912402335316957,1.0,0,297.0,755.0,0.0,358.0,1
1414,1414,-0.6868945171839469,-0.7,1,456.0,770.0,1.0,874.0,1
1415,1415,0.6538196569543366,0.7,0,491.0,505.0,0.0,394.0,1
1416,1416,-0.5170514868534541,-0.5,1,476.0,627.0,1.0,177.0,1
1417,1417,0.2703886213902853,0.3,0,272.0,992.0,0.0,1476.0,1
1418,1418,-0.4201865544097776,-0.4,1,456.0,901.0,1.0,723.0,1
1419,1419,0.1703395729487991,0.2,0,457.0,700.0,1.0,3843.0,0
1420,1420,-0.38887684009580736,-0.4,1,461.0,900.0,1.0,679.0,1
1421,1421,-0.03496332538837099,-0.0,1,487.0,660.0,0.0,3853.0,0
1422,1422,-0.5877583477999513,-0.6,1,417.0,836.0,1.0,347.0,1
1423,1423,0.11015158847157425,0.1,0,309.0,748.0,0.0,463.0,1
1424,1424,-0.6955074072991287,-0.7,1,385.0,681.0,1.0,424.0,1
1425,1425,0.07791167543947819,0.1,0,311.0,690.0,1.0,539.0,0
1426,1426,-0.8745131176064769,-0.9,1,454.0,726.0,1.0,450.0,1
1427,1427,-0.782641533306542,-0.8,1,333.0,727.0,1.0,540.0,1
1428,1428,-0.6648779076861182,-0.7,1,446.0,641.0,1.0,413.0,1
1429,1429,-0.43200448823427817,-0.4,1,315.0,708.0,1.0,447.0,1
1430,1430,0.9184478426622227,0.9,0,454.0,931.0,0.0,995.0,1
1431,1431,-0.6188366562006018,-0.6,1,486.0,856.0,1.0,248.0,1
1432,1432,0.6735566341562798,0.7,0,265.0,932.0,0.0,1003.0,1
1433,1433,-0.30631153475748363,-0.3,1,267.0,818.0,1.0,255.0,1
1434,1434,0.40746775667282464,0.4,0,425.0,691.0,0.0,504.0,1
1435,1435,-0.6499825434300703,-0.6,1,299.0,961.0,1.0,810.0,1
1436,1436,0.7642445303238197,0.8,0,358.0,910.0,0.0,722.0,1
1437,1437,0.3130802406120625,0.3,0,375.0,989.0,1.0,1216.0,0
1438,1438,-0.6725898700586856,-0.7,1,375.0,842.0,1.0,493.0,1
1439,1439,0.7692329398113478,0.8,0,468.0,774.0,0.0,1108.0,1
1440,1440,0.7944182570624099,0.8,0,427.0,959.0,0.0,684.0,1
1441,1441,0.8887635384707979,0.9,0,407.0,804.0,0.0,919.0,1
1442,1442,-0.3851853841715345,-0.4,1,355.0,981.0,1.0,404.0,1
1443,1443,-0.8869399488121155,-0.9,1,266.0,984.0,1.0,320.0,1
1444,1444,-0.31215869461150736,-0.3,1,402.0,691.0,0.0,2227.0,0
1445,1445,-0.48980858469931854,-0.5,1,434.0,950.0,1.0,216.0,1
1446,1446,0.33063760197587944,0.3,0,499.0,537.0,0.0,1454.0,1
1447,1447,0.6943373183587345,0.7,0,415.0,878.0,0.0,517.0,1
1448,1448,-0.2565757214836015,-0.3,1,365.0,581.0,1.0,1304.0,1
1449,1449,-0.7577182097670445,-0.8,1,444.0,934.0,1.0,462.0,1
1450,1450,0.10052652727909717,0.1,0,359.0,761.0,0.0,1750.0,1
1451,1451,-0.10119716219385233,-0.1,1,471.0,855.0,1.0,2554.0,1
1452,1452,-0.3319396655174045,-0.3,1,424.0,862.0,1.0,2114.0,1
1453,1453,-0.6866458956388604,-0.7,1,469.0,536.0,1.0,2155.0,1
1454,1454,0.632475484187331,0.6,0,321.0,553.0,0.0,376.0,1
1455,1455,-0.8335771665196694,-0.8,1,319.0,963.0,1.0,708.0,1
1456,1456,0.21135218304238546,0.2,0,257.0,886.0,0.0,1717.0,1
1457,1457,0.8450487681319157,0.8,0,311.0,930.0,0.0,639.0,1
1458,1458,-0.9569240614841414,-1.0,1,340.0,896.0,1.0,624.0,1
1459,1459,0.9559031168928711,1.0,0,492.0,653.0,0.0,395.0,1
1460,1460,-0.8628275765526006,-0.9,1,263.0,689.0,1.0,368.0,1
1461,1461,-0.8787282120850473,-0.9,1,356.0,838.0,1.0,146.0,1
1462,1462,-0.12606188668540663,-0.1,1,343.0,592.0,1.0,2415.0,1
1463,1463,-0.28810574210942175,-0.3,1,480.0,515.0,1.0,1565.0,1
1464,1464,-0.2692899246252549,-0.3,1,260.0,732.0,1.0,1588.0,1
1465,1465,-0.05353819253951464,-0.1,1,353.0,844.0,1.0,283.0,1
1466,1466,0.34457546477463974,0.3,0,275.0,666.0,0.0,359.0,1
1467,1467,0.032054200866706184,0.0,0,321.0,966.0,0.0,3713.0,1
1468,1468,-0.4541858605826339,-0.5,1,414.0,587.0,1.0,119.0,1
1469,1469,-0.15865263449986333,-0.2,1,483.0,670.0,1.0,1997.0,1
1470,1470,-0.24032838739825158,-0.2,1,413.0,890.0,1.0,757.0,1
1471,1471,0.9250538528405823,0.9,0,403.0,994.0,0.0,823.0,1
1472,1472,-0.4029483552957327,-0.4,1,391.0,796.0,1.0,693.0,1
1473,1473,0.5931741825903836,0.6,0,357.0,913.0,0.0,740.0,1
1474,1474,-0.6657774758234625,-0.7,1,432.0,557.0,1.0,441.0,1
1475,1475,0.5818085820085215,0.6,0,324.0,636.0,0.0,280.0,1
1476,1476,-0.8030298599731454,-0.8,1,335.0,818.0,1.0,277.0,1
1477,1477,0.5132597636615139,0.5,0,387.0,760.0,0.0,1503.0,1
1478,1478,0.7593605826824141,0.8,0,271.0,782.0,0.0,927.0,1
1479,1479,0.25137214439433064,0.3,0,422.0,968.0,0.0,2280.0,1
1480,1480,-0.535823404774787,-0.5,1,447.0,627.0,1.0,306.0,1
1481,1481,-0.4258620881567483,-0.4,1,496.0,528.0,1.0,1396.0,1
1482,1482,-0.7266203357798189,-0.7,1,372.0,568.0,1.0,1020.0,1
1483,1483,-0.6722268813550709,-0.7,1,452.0,840.0,1.0,238.0,1
1484,1484,0.2976392620556789,0.3,0,371.0,710.0,0.0,49.0,1
1485,1485,-0.3423262016987718,-0.3,1,384.0,582.0,1.0,1654.0,1
1486,1486,0.8996236806835491,0.9,0,283.0,557.0,0.0,260.0,1
1487,1487,0.9724165495440862,1.0,0,259.0,674.0,0.0,1017.0,1
1488,1488,0.08062469177020315,0.1,0,287.0,779.0,0.0,144.0,1
1489,1489,0.2878033255201937,0.3,0,480.0,702.0,1.0,3818.0,0
1490,1490,0.8352157174782886,0.8,0,377.0,731.0,0.0,382.0,1
1491,1491,-0.3289751539969652,-0.3,1,255.0,521.0,1.0,224.0,1
1492,1492,0.2637646889698664,0.3,0,305.0,683.0,0.0,812.0,1
1493,1493,0.5735279997566407,0.6,0,344.0,852.0,0.0,394.0,1
1494,1494,-0.13999938817439972,-0.1,1,368.0,867.0,1.0,855.0,1
1495,1495,-0.5659680687218445,-0.6,1,381.0,566.0,1.0,353.0,1
1496,1496,-0.4225024635449244,-0.4,1,279.0,518.0,1.0,2143.0,1
1497,1497,-0.3792533176821684,-0.4,1,474.0,872.0,1.0,724.0,1
1498,1498,0.477273320312501,0.5,0,259.0,926.0,0.0,1825.0,1
1499,1499,-0.8562923434118803,-0.9,1,250.0,562.0,1.0,128.0,1
1500,1500,-0.45057650810791383,-0.5,1,329.0,525.0,1.0,1396.0,1
1501,1501,0.9607596276160071,1.0,0,414.0,833.0,0.0,393.0,1
1502,1502,-0.7074468331374324,-0.7,1,474.0,652.0,1.0,254.0,1
1503,1503,-0.2641710700547384,-0.3,1,410.0,593.0,1.0,427.0,1
1504,1504,0.9406314118377364,0.9,0,449.0,936.0,0.0,625.0,1
1505,1505,-0.013672482389300411,-0.0,1,339.0,978.0,1.0,3503.0,1
1506,1506,-0.7786693186504412,-0.8,1,479.0,862.0,1.0,559.0,1
1507,1507,-0.11737430576956642,-0.1,1,464.0,893.0,1.0,1453.0,1
1508,1508,-0.7995013976226562,-0.8,1,458.0,855.0,1.0,177.0,1
1509,1509,-0.531349082796281,-0.5,1,339.0,899.0,1.0,252.0,1
1510,1510,0.3136903323276392,0.3,0,283.0,998.0,0.0,1489.0,1
1511,1511,-0.347688028277197,-0.3,1,272.0,597.0,0.0,1371.0,0
1512,1512,-0.13961320991656168,-0.1,1,393.0,614.0,1.0,2513.0,1
1513,1513,0.3528114701104148,0.4,0,299.0,658.0,0.0,613.0,1
1514,1514,0.9051627819765315,0.9,0,490.0,841.0,0.0,1959.0,1
1515,1515,-0.8467759302156366,-0.8,1,334.0,581.0,1.0,655.0,1
1516,1516,-0.7275677566650132,-0.7,1,361.0,725.0,1.0,624.0,1
1517,1517,0.37735279994393545,0.4,0,306.0,996.0,1.0,2468.0,0
1518,1518,0.9829590930384191,1.0,0,286.0,783.0,0.0,481.0,1
1519,1519,0.6426773742732788,0.6,0,313.0,690.0,0.0,1217.0,1
1520,1520,0.2577705767887388,0.3,0,470.0,873.0,0.0,2597.0,1
1521,1521,-0.14294400041118216,-0.1,1,354.0,774.0,0.0,2092.0,0
1522,1522,0.2824183432781915,0.3,0,492.0,991.0,1.0,3517.0,0
1523,1523,-0.3848626304283713,-0.4,1,397.0,680.0,1.0,273.0,1
1524,1524,0.9536002679071518,1.0,0,386.0,514.0,0.0,200.0,1
1525,1525,-0.5984733035495158,-0.6,1,456.0,645.0,1.0,29.0,1
1526,1526,-0.3849753397050879,-0.4,1,438.0,807.0,1.0,375.0,1
1527,1527,-0.6526710077661566,-0.7,1,322.0,821.0,1.0,387.0,1
1528,1528,-0.2824640922434476,-0.3,1,387.0,512.0,1.0,1351.0,1
1529,1529,0.7344665576911158,0.7,0,444.0,803.0,0.0,353.0,1
1530,1530,-0.15105778774961554,-0.2,1,325.0,851.0,1.0,324.0,1
1531,1531,-0.8216519950717724,-0.8,1,332.0,522.0,1.0,646.0,1
1532,1532,-0.47416794306415855,-0.5,1,266.0,526.0,1.0,1348.0,1
1533,1533,0.27841213146498456,0.3,0,278.0,682.0,0.0,2040.0,1
1534,1534,0.8186833444490389,0.8,0,448.0,815.0,0.0,357.0,1
1535,1535,0.7127414007936848,0.7,0,283.0,536.0,0.0,441.0,1
1536,1536,-0.8313817279237068,-0.8,1,325.0,837.0,1.0,498.0,1
1537,1537,0.8342206544467576,0.8,0,446.0,668.0,0.0,446.0,1
1538,1538,0.7123021120932016,0.7,0,415.0,750.0,0.0,1265.0,1
1539,1539,-0.4108358653384141,-0.4,1,472.0,909.0,1.0,789.0,1
1540,1540,0.826799952099095,0.8,0,403.0,873.0,0.0,984.0,1
1541,1541,-0.7205140298259296,-0.7,1,300.0,648.0,1.0,502.0,1
1542,1542,0.30048155099101215,0.3,0,399.0,587.0,0.0,964.0,1
1543,1543,-0.7974911630453587,-0.8,1,436.0,961.0,1.0,523.0,1
1544,1544,-0.33619968058457905,-0.3,1,334.0,904.0,1.0,452.0,1
1545,1545,-0.05364246713208809,-0.1,1,279.0,852.0,1.0,1159.0,1
1546,1546,0.26167911326004845,0.3,0,332.0,730.0,0.0,1998.0,1
1547,1547,0.9959065815608199,1.0,0,275.0,821.0,0.0,494.0,1
1548,1548,-0.7124878715247502,-0.7,1,347.0,658.0,1.0,605.0,1
1549,1549,-0.3516312865800282,-0.4,1,487.0,800.0,1.0,663.0,1
1550,1550,-0.37460126840184715,-0.4,1,280.0,701.0,1.0,1199.0,1
1551,1551,0.9696076539143543,1.0,0,410.0,997.0,0.0,373.0,1
1552,1552,-0.17963628981125868,-0.2,1,413.0,865.0,1.0,622.0,1
1553,1553,0.8599533594530635,0.9,0,293.0,603.0,0.0,844.0,1
1554,1554,0.16775329175025822,0.2,0,405.0,681.0,1.0,3914.0,0
1555,1555,-0.8851661938980395,-0.9,1,404.0,680.0,1.0,506.0,1
1556,1556,-0.8591201538431448,-0.9,1,323.0,520.0,1.0,1347.0,1
1557,1557,0.44594673839639776,0.4,0,322.0,954.0,0.0,2454.0,1
1558,1558,-0.9942674624547976,-1.0,1,340.0,831.0,1.0,119.0,1
1559,1559,-0.7098262641763988,-0.7,1,477.0,907.0,1.0,336.0,1
1560,1560,-0.9410035077838503,-0.9,1,325.0,597.0,1.0,1678.0,1
1561,1561,0.9624857314757338,1.0,0,417.0,567.0,0.0,826.0,1
1562,1562,0.3986450025565935,0.4,0,311.0,627.0,0.0,2672.0,1
1563,1563,-0.40896337293124496,-0.4,1,420.0,871.0,1.0,519.0,1
1564,1564,0.22930193179050362,0.2,0,402.0,870.0,0.0,598.0,1
1565,1565,0.6923004006784512,0.7,0,395.0,780.0,0.0,215.0,1
1566,1566,0.30751768787425604,0.3,0,364.0,655.0,0.0,981.0,1
1567,1567,0.07806615911315751,0.1,0,486.0,564.0,0.0,1440.0,1
1568,1568,-0.512893681040133,-0.5,1,256.0,971.0,1.0,13.0,1
1569,1569,0.09357524247420113,0.1,0,456.0,913.0,1.0,591.0,0
1570,1570,-0.6891976859074478,-0.7,1,485.0,641.0,1.0,104.0,1
1571,1571,-0.5363055962976229,-0.5,1,307.0,831.0,1.0,322.0,1
1572,1572,0.37395384513340635,0.4,0,282.0,551.0,0.0,737.0,1
1573,1573,-0.5224447486049273,-0.5,1,311.0,972.0,1.0,707.0,1
1574,1574,0.8916640440320118,0.9,0,443.0,810.0,0.0,147.0,1
1575,1575,0.3135493387455537,0.3,0,279.0,912.0,1.0,499.0,0
1576,1576,-0.44901101237734875,-0.4,1,267.0,862.0,1.0,241.0,1
1577,1577,-0.14470133032392862,-0.1,1,308.0,738.0,1.0,124.0,1
1578,1578,-0.8669789668492323,-0.9,1,390.0,745.0,1.0,195.0,1
1579,1579,0.6340752261632168,0.6,0,304.0,851.0,0.0,615.0,1
1580,1580,0.5999682409495422,0.6,0,461.0,517.0,0.0,1812.0,1
1581,1581,0.9024119260688637,0.9,0,332.0,537.0,0.0,711.0,1
1582,1582,0.6130364095617986,0.6,0,309.0,578.0,0.0,363.0,1
1583,1583,-0.11837436692037229,-0.1,1,395.0,857.0,1.0,1608.0,1
1584,1584,-0.5173640399961683,-0.5,1,462.0,678.0,1.0,290.0,1
1585,1585,0.22565982012800223,0.2,0,342.0,680.0,0.0,3778.0,1
1586,1586,0.8278489732350072,0.8,0,326.0,743.0,0.0,561.0,1
1587,1587,-0.8586757676142445,-0.9,1,260.0,819.0,1.0,291.0,1
1588,1588,-0.6578524458523156,-0.7,1,447.0,585.0,1.0,208.0,1
1589,1589,0.8070062895485808,0.8,0,488.0,692.0,0.0,390.0,1
1590,1590,-0.37869461673072946,-0.4,1,470.0,881.0,1.0,1309.0,1
1591,1591,0.16463782899936685,0.2,0,442.0,721.0,0.0,2117.0,1
1592,1592,-0.9383915066541533,-0.9,1,287.0,734.0,1.0,959.0,1
1593,1593,-0.1536034185628279,-0.2,1,331.0,717.0,1.0,892.0,1
1594,1594,-0.5077663901648919,-0.5,1,310.0,680.0,1.0,770.0,1
1595,1595,0.6539276610551543,0.7,0,304.0,996.0,0.0,2060.0,1
1596,1596,0.6797121038145857,0.7,0,438.0,961.0,0.0,361.0,1
1597,1597,-0.43749300565848115,-0.4,1,354.0,940.0,1.0,2236.0,1
1598,1598,-0.6473696289995468,-0.6,1,484.0,768.0,1.0,1588.0,1
1599,1599,0.7960118756658205,0.8,0,459.0,888.0,0.0,913.0,1
1600,1600,0.7809484524227226,0.8,0,390.0,693.0,0.0,427.0,1
1601,1601,-0.7150484181610606,-0.7,1,342.0,838.0,1.0,1090.0,1
1602,1602,0.5509054121028487,0.6,0,469.0,715.0,0.0,936.0,1
1603,1603,-0.03767850103678971,-0.0,1,369.0,560.0,1.0,621.0,1
1604,1604,0.4445762712438319,0.4,0,280.0,987.0,0.0,963.0,1
1605,1605,0.8335588303038688,0.8,0,438.0,948.0,0.0,404.0,1
1606,1606,0.7417841747362852,0.7,0,386.0,553.0,0.0,181.0,1
1607,1607,0.01807686412344056,0.0,0,279.0,520.0,1.0,1111.0,0
1608,1608,0.5831314658304918,0.6,0,437.0,539.0,0.0,1184.0,1
1609,1609,0.04122888122212376,0.0,0,360.0,892.0,1.0,38.0,0
1610,1610,0.5433503861722149,0.5,0,477.0,718.0,0.0,1555.0,1
1611,1611,0.0484380147804464,0.0,0,334.0,968.0,0.0,3698.0,1
1612,1612,-0.3527349481396864,-0.4,1,487.0,682.0,1.0,361.0,1
1613,1613,0.5381758050077796,0.5,0,459.0,545.0,0.0,1506.0,1
1614,1614,0.06070204031685966,0.1,0,392.0,587.0,0.0,1101.0,1
1615,1615,-0.4225280576039012,-0.4,1,347.0,916.0,1.0,1037.0,1
1616,1616,0.0310280404096257,0.0,0,340.0,762.0,0.0,2108.0,1
1617,1617,-0.5844286572330764,-0.6,1,388.0,523.0,1.0,809.0,1
1618,1618,0.2998327982508815,0.3,0,422.0,861.0,0.0,37.0,1
1619,1619,0.7074910572698461,0.7,0,423.0,561.0,0.0,786.0,1
1620,1620,0.04901569288827967,0.0,0,449.0,710.0,1.0,751.0,0
1621,1621,0.2724045483951656,0.3,0,481.0,735.0,0.0,2634.0,1
1622,1622,-0.5621397299446429,-0.6,1,433.0,668.0,1.0,519.0,1
1623,1623,0.3043401366213474,0.3,0,258.0,542.0,1.0,180.0,0
1624,1624,0.2444373451027262,0.2,0,399.0,754.0,0.0,637.0,1
1625,1625,-0.2767942484969912,-0.3,1,427.0,554.0,1.0,419.0,1
1626,1626,-0.5341794773151702,-0.5,1,499.0,513.0,1.0,1198.0,1
1627,1627,-0.5973734757139704,-0.6,1,466.0,856.0,1.0,1398.0,1
1628,1628,0.8080158180500645,0.8,0,440.0,837.0,0.0,263.0,1
1629,1629,0.6553986844863369,0.7,0,469.0,643.0,0.0,1698.0,1
1630,1630,-0.9514248319048928,-1.0,1,408.0,642.0,1.0,300.0,1
1631,1631,0.7814542981745298,0.8,0,472.0,707.0,0.0,691.0,1
1632,1632,-0.4962866870558318,-0.5,1,260.0,814.0,1.0,326.0,1
1633,1633,-0.48012806746862347,-0.5,1,353.0,886.0,1.0,641.0,1
1634,1634,-0.5320650327754877,-0.5,1,337.0,965.0,1.0,1048.0,1
1635,1635,-0.9001358799676122,-0.9,1,366.0,707.0,1.0,267.0,1
1636,1636,-0.3641988006222905,-0.4,1,478.0,915.0,1.0,647.0,1
1637,1637,-0.5618302301131142,-0.6,1,459.0,827.0,1.0,384.0,1
1638,1638,-0.6643922906910227,-0.7,1,387.0,546.0,1.0,697.0,1
1639,1639,0.07675046961184573,0.1,0,454.0,897.0,1.0,569.0,0
1640,1640,0.9568901309684128,1.0,0,250.0,505.0,0.0,325.0,1
1641,1641,-0.8921253110910816,-0.9,1,341.0,579.0,1.0,400.0,1
1642,1642,-0.455699984382669,-0.5,1,362.0,959.0,1.0,789.0,1
1643,1643,0.5910589130292043,0.6,0,272.0,749.0,0.0,1439.0,1
1644,1644,0.8931688320774658,0.9,0,381.0,909.0,0.0,200.0,1
1645,1645,0.4927584850274571,0.5,0,332.0,937.0,0.0,971.0,1
1646,1646,0.9910409160100115,1.0,0,492.0,668.0,0.0,1100.0,1
1647,1647,-0.6494644268327134,-0.6,1,466.0,774.0,1.0,220.0,1
1648,1648,0.16392666039949644,0.2,0,451.0,621.0,0.0,468.0,1
1649,1649,-0.7835248723328452,-0.8,1,462.0,685.0,1.0,313.0,1
1650,1650,-0.5185947758859724,-0.5,1,460.0,652.0,1.0,1958.0,1
1651,1651,0.47197000039717185,0.5,0,393.0,902.0,0.0,2735.0,1
1652,1652,-0.9955828843739285,-1.0,1,338.0,836.0,1.0,906.0,1
1653,1653,-0.3558188179536783,-0.4,1,282.0,786.0,1.0,32.0,1
1654,1654,0.4548013174920591,0.5,0,397.0,649.0,0.0,1074.0,1
1655,1655,-0.6326749561515221,-0.6,1,470.0,711.0,1.0,1269.0,1
1656,1656,-0.6370607138279702,-0.6,1,451.0,921.0,1.0,1018.0,1
1657,1657,0.3673311108987496,0.4,0,288.0,699.0,1.0,-467.0,0
1658,1658,-0.872601754152962,-0.9,1,340.0,749.0,1.0,251.0,1
1659,1659,-0.2701835580946823,-0.3,1,415.0,539.0,1.0,1076.0,1
1660,1660,0.9358996965386286,0.9,0,413.0,731.0,0.0,906.0,1
1661,1661,0.2388977086113837,0.2,0,278.0,985.0,0.0,747.0,1
1662,1662,0.027665690758014616,0.0,0,362.0,614.0,1.0,504.0,0
1663,1663,0.3432147705299564,0.3,0,461.0,622.0,0.0,2497.0,1
1664,1664,-0.6083171656287518,-0.6,1,273.0,690.0,1.0,237.0,1
1665,1665,0.9366818287144092,0.9,0,378.0,840.0,0.0,152.0,1
1666,1666,0.0032026613020317285,0.0,0,441.0,699.0,0.0,1930.0,1
1667,1667,-0.6860122919450342,-0.7,1,346.0,677.0,1.0,567.0,1
1668,1668,0.13722957866195107,0.1,0,257.0,700.0,1.0,2053.0,0
1669,1669,0.9130460635144881,0.9,0,365.0,613.0,0.0,322.0,1
1670,1670,0.339506961917055,0.3,0,381.0,901.0,0.0,1008.0,1
1671,1671,0.433345836174831,0.4,0,456.0,789.0,0.0,525.0,1
1672,1672,-0.7685988084760274,-0.8,1,400.0,758.0,1.0,612.0,1
1673,1673,0.44150823816662754,0.4,0,442.0,677.0,0.0,281.0,1
1674,1674,0.13207569349128456,0.1,0,311.0,662.0,1.0,1507.0,0
1675,1675,0.07416331038353818,0.1,0,273.0,648.0,1.0,4079.0,0
1676,1676,-0.5447750488360052,-0.5,1,319.0,978.0,1.0,2383.0,1
1677,1677,-0.9760198359233432,-1.0,1,265.0,543.0,1.0,152.0,1
1678,1678,0.15767220177050412,0.2,0,440.0,676.0,0.0,1604.0,1
1679,1679,-0.6845190250569928,-0.7,1,293.0,755.0,1.0,582.0,1
1680,1680,0.2328698759157808,0.2,0,362.0,962.0,0.0,2786.0,1
1681,1681,-0.4246344559285964,-0.4,1,345.0,578.0,1.0,917.0,1
1682,1682,0.671600330982558,0.7,0,407.0,957.0,0.0,396.0,1
1683,1683,-0.1216329861157881,-0.1,1,353.0,935.0,1.0,802.0,1
1684,1684,-0.5219142564829427,-0.5,1,260.0,598.0,1.0,572.0,1
