,trial,coherence,coherence_bin,correct_side,target_onset,checker_onset,decision,decision_time,correct_decision,inputBias
0,0,-0.2060334872648082,-0.2,1,339.0,534.0,1.0,167.0,1,0.40581980446051785
1,1,0.7468376874599452,0.7,0,261.0,785.0,0.0,94.0,1,0.3966107189210816
2,2,-0.05214857764955516,-0.1,1,433.0,748.0,1.0,1609.0,1,0.40001902995567995
3,3,0.0851790978868614,0.1,0,427.0,820.0,1.0,-817.0,0,0.29185693726360257
4,4,0.1874088401607117,0.2,0,340.0,848.0,0.0,1052.0,1,0.24321286594475033
5,5,0.33743551403758754,0.3,0,358.0,857.0,0.0,655.0,1,0.20743571396697044
6,6,0.6131013962872118,0.6,0,345.0,725.0,0.0,170.0,1,0.2755594620219152
7,7,0.7005093764184083,0.7,0,324.0,552.0,0.0,184.0,1,0.2658350923582727
8,8,-0.9233904548756418,-0.9,1,287.0,821.0,1.0,102.0,1,0.3993373511088121
9,9,-0.9843757732602461,-1.0,1,284.0,677.0,1.0,169.0,1,0.41388080907049873
10,10,0.717017616533099,0.7,0,264.0,549.0,0.0,217.0,1,0.39725033617113936
11,11,-0.6725632466418641,-0.7,1,490.0,652.0,1.0,168.0,1,0.29674733720449864
12,12,0.913121470232092,0.9,0,441.0,616.0,1.0,-17.0,0,0.3423271853933868
13,13,0.043522500669666675,0.0,0,435.0,848.0,1.0,147.0,0,0.4624957791398015
14,14,-0.5352365971067092,-0.5,1,378.0,536.0,1.0,-284.0,1,0.4362637885735622
15,15,0.024360459835682358,0.0,0,433.0,578.0,1.0,779.0,0,0.4030086478005014
16,16,-0.9132878102872157,-0.9,1,388.0,622.0,1.0,170.0,1,0.3088936319577924
17,17,-0.4128026662949036,-0.4,1,410.0,505.0,1.0,105.0,1,0.3938178719429536
18,18,-0.3762456410653292,-0.4,1,254.0,972.0,1.0,-156.0,1,0.38696851908774244
19,19,-0.23934764834400468,-0.2,1,342.0,643.0,1.0,1165.0,1,0.24941414866972486
20,20,0.4475986065628599,0.4,0,277.0,931.0,0.0,192.0,1,0.206729400770991
21,21,0.40864012747401657,0.4,0,319.0,597.0,0.0,244.0,1,0.3632280917891614
22,22,-0.9990635475447895,-1.0,1,351.0,942.0,1.0,127.0,1,0.2610479556261397
23,23,0.6201252260285968,0.6,0,467.0,516.0,0.0,197.0,1,0.3486159329103492
24,24,-0.1648105371991171,-0.2,1,314.0,758.0,1.0,-302.0,1,0.45048491889424747
25,25,-0.4454058820252218,-0.4,1,387.0,644.0,1.0,209.0,1,0.29984778964902276
26,26,-0.07778294426147547,-0.1,1,364.0,817.0,0.0,269.0,0,0.3190920118160063
27,27,0.4972287091378247,0.5,0,329.0,818.0,0.0,223.0,1,0.41096665479494554
28,28,0.002749839278179511,0.0,0,279.0,910.0,0.0,-709.0,1,0.4665908417177517
29,29,-0.0657161921016669,-0.1,1,405.0,907.0,1.0,-312.0,1,0.33576716653668326
30,30,-0.36564700986186915,-0.4,1,454.0,770.0,1.0,846.0,1,0.34937135167866823
31,31,0.3469841229274442,0.3,0,356.0,817.0,0.0,857.0,1,0.3929226520109729
32,32,0.535192623541153,0.5,0,387.0,917.0,1.0,-704.0,0,0.4872321585843997
33,33,0.027868471364498548,0.0,0,354.0,564.0,1.0,-338.0,0,0.4863606698997974
34,34,-0.6464951802971504,-0.6,1,377.0,609.0,1.0,334.0,1,0.3445666256085948
35,35,-0.3785416518329592,-0.4,1,386.0,842.0,1.0,72.0,1,0.4251293183568315
36,36,0.5693433059453179,0.6,0,310.0,617.0,0.0,173.0,1,0.26110808966295446
37,37,0.7213472754423187,0.7,0,489.0,991.0,0.0,110.0,1,0.4354544748334201
38,38,-0.008162506343184939,-0.0,1,370.0,571.0,1.0,499.0,1,0.39358687814002774
39,39,0.4085275510108022,0.4,0,494.0,865.0,0.0,331.0,1,0.2502991193705287
40,40,-0.2528297531898125,-0.3,1,352.0,879.0,1.0,-521.0,1,0.49157187412046444
41,41,0.5696218217872526,0.6,0,453.0,626.0,0.0,231.0,1,0.3860289942733405
42,42,-0.20138042961410219,-0.2,1,318.0,719.0,1.0,-127.0,1,0.37002295153095954
43,43,0.7625406891296211,0.8,0,400.0,580.0,0.0,240.0,1,0.20761958006202685
44,44,-0.461808066203683,-0.5,1,258.0,613.0,1.0,199.0,1,0.3779671866134894
45,45,-0.7188509889824706,-0.7,1,423.0,895.0,1.0,182.0,1,0.2987434685172396
46,46,0.9206102538815137,0.9,0,335.0,738.0,1.0,-773.0,0,0.48599331761209763
47,47,-0.6663535789955091,-0.7,1,382.0,609.0,1.0,179.0,1,0.25110491045937283
48,48,0.2734796926450238,0.3,0,401.0,852.0,0.0,537.0,1,0.26864435475615767
49,49,0.9984576585979807,1.0,0,470.0,984.0,0.0,256.0,1,0.24015256253779657
50,50,-0.2010645436994003,-0.2,1,259.0,880.0,1.0,-699.0,1,0.48521100122823596
51,51,0.42141529272917655,0.4,0,388.0,834.0,1.0,-632.0,0,0.3753458183484065
52,52,-0.6287716927400091,-0.6,1,372.0,718.0,1.0,170.0,1,0.4613663101158041
53,53,0.8311885872440652,0.8,0,436.0,691.0,1.0,-97.0,0,0.4972599660836154
54,54,-0.8564556276620592,-0.9,1,305.0,701.0,1.0,-456.0,1,0.42346121582433216
55,55,-0.7908518341914066,-0.8,1,418.0,803.0,1.0,-321.0,1,0.49735763048205894
56,56,-0.6857302413915756,-0.7,1,417.0,648.0,1.0,165.0,1,0.20337951482543648
57,57,0.6451586800239373,0.6,0,485.0,721.0,0.0,414.0,1,0.2551691547374845
58,58,-0.5912591958303117,-0.6,1,292.0,786.0,1.0,132.0,1,0.3180600397999166
59,59,0.9081172429797941,0.9,0,366.0,574.0,0.0,130.0,1,0.390776289849079
60,60,0.8105795522933743,0.8,0,270.0,726.0,0.0,124.0,1,0.4076983358201727
61,61,-0.6682209152201035,-0.7,1,493.0,729.0,1.0,-282.0,1,0.47706921603172653
62,62,0.18206642935664608,0.2,0,320.0,563.0,0.0,147.0,1,0.41754101723089787
63,63,-0.9839736939240717,-1.0,1,446.0,634.0,1.0,-30.0,1,0.42668651861335005
64,64,-0.5086752966788497,-0.5,1,399.0,912.0,1.0,239.0,1,0.39981901327242664
65,65,-0.5372939534327179,-0.5,1,411.0,885.0,1.0,84.0,1,0.28967351671302144
66,66,-0.03417334912956549,-0.0,1,336.0,537.0,1.0,-113.0,1,0.4363825387252994
67,67,0.5892729717644576,0.6,0,256.0,987.0,0.0,207.0,1,0.21115286250343188
68,68,0.10692107676945395,0.1,0,302.0,948.0,0.0,260.0,1,0.3783651982923143
69,69,0.18938496088385603,0.2,0,348.0,826.0,1.0,-764.0,0,0.49758566260675846
70,70,0.32778291219982325,0.3,0,292.0,561.0,0.0,327.0,1,0.41325830352931303
71,71,0.15276956692030752,0.2,0,323.0,813.0,1.0,44.0,0,0.47175720665943355
72,72,0.6854764914692488,0.7,0,469.0,983.0,1.0,-692.0,0,0.41996608497947696
73,73,-0.4395155623080653,-0.4,1,391.0,548.0,1.0,-129.0,1,0.40570460386618545
74,74,-0.219469901654459,-0.2,1,404.0,671.0,1.0,315.0,1,0.2403152383560977
75,75,-0.7951561711295816,-0.8,1,259.0,974.0,1.0,-403.0,1,0.48463260894158317
76,76,-0.3354357557715306,-0.3,1,495.0,542.0,1.0,413.0,1,0.42396325050049083
77,77,-0.11716818385030914,-0.1,1,430.0,766.0,0.0,264.0,0,0.3313920829023188
78,78,0.2162288981365914,0.2,0,369.0,650.0,0.0,461.0,1,0.32593752512484425
79,79,0.4753897053387546,0.5,0,342.0,949.0,0.0,279.0,1,0.25776004275392167
80,80,0.8410352556402865,0.8,0,355.0,633.0,0.0,102.0,1,0.36856598020039255
81,81,0.7775005618921134,0.8,0,257.0,898.0,0.0,155.0,1,0.29843725851434194
82,82,-0.27444045090920133,-0.3,1,368.0,717.0,1.0,225.0,1,0.3409074655316382
83,83,0.6031722970804976,0.6,0,409.0,967.0,0.0,284.0,1,0.2013501977114722
84,84,-0.23736922465160637,-0.2,1,453.0,801.0,1.0,256.0,1,0.21883045462669307
85,85,0.7645110381072797,0.8,0,319.0,838.0,0.0,253.0,1,0.27240666610772324
86,86,-0.1808116376081068,-0.2,1,402.0,979.0,1.0,-691.0,1,0.47230134248104577
87,87,0.5421210166368624,0.5,0,357.0,562.0,1.0,-539.0,0,0.4539099919651403
88,88,-0.06154582720493296,-0.1,1,379.0,654.0,1.0,67.0,1,0.35413013403531446
89,89,0.9384226055562375,0.9,0,380.0,871.0,0.0,129.0,1,0.30330430376849254
90,90,0.9395367079981454,0.9,0,495.0,951.0,0.0,404.0,1,0.24863297625173822
91,91,0.7882799322873306,0.8,0,401.0,856.0,0.0,163.0,1,0.3224990380901199
92,92,-0.8171936188344178,-0.8,1,276.0,737.0,1.0,-513.0,1,0.47540707743397953
93,93,0.5515854604116783,0.6,0,350.0,795.0,0.0,375.0,1,0.2591313496652605
94,94,-0.9449246269733917,-0.9,1,380.0,842.0,1.0,108.0,1,0.35295999214251494
95,95,-0.9122924105836443,-0.9,1,415.0,698.0,1.0,147.0,1,0.22756310146508343
96,96,0.9140690356040786,0.9,0,484.0,594.0,0.0,212.0,1,0.3184348052129533
97,97,-0.7105354745239276,-0.7,1,298.0,563.0,1.0,99.0,1,0.35496019005948864
98,98,-0.7440006482606456,-0.7,1,455.0,864.0,1.0,111.0,1,0.23018330168679663
99,99,0.9070595252902767,0.9,0,290.0,636.0,0.0,204.0,1,0.32955142509537616
100,100,-0.6075141361272218,-0.6,1,320.0,801.0,1.0,169.0,1,0.2750702668725618
101,101,0.3867360410084395,0.4,0,304.0,589.0,0.0,297.0,1,0.34619911247783197
102,102,0.8735070332822101,0.9,0,304.0,788.0,0.0,88.0,1,0.21137701641364134
103,103,0.8941750657893233,0.9,0,436.0,948.0,0.0,166.0,1,0.22734210041204528
104,104,0.8242409634074661,0.8,0,348.0,864.0,1.0,-302.0,0,0.39667520047945504
105,105,0.12638770315642978,0.1,0,250.0,736.0,0.0,594.0,1,0.3829964036239176
106,106,-0.6137210687618304,-0.6,1,449.0,517.0,1.0,244.0,1,0.3157343356638379
107,107,0.10714603343192985,0.1,0,294.0,674.0,1.0,1002.0,0,0.3202957900791401
108,108,-0.6116172997391407,-0.6,1,303.0,504.0,1.0,503.0,1,0.4275026513613235
109,109,-0.3483729693033142,-0.3,1,472.0,749.0,1.0,179.0,1,0.2259674766058923
110,110,0.9494951429322316,0.9,0,354.0,737.0,0.0,189.0,1,0.21072378671757402
111,111,0.7769591363916091,0.8,0,391.0,628.0,0.0,121.0,1,0.3641344769948913
112,112,0.017629169613545326,0.0,0,357.0,625.0,0.0,758.0,1,0.26823771039261485
113,113,-0.07125967609960382,-0.1,1,390.0,900.0,1.0,570.0,1,0.4044491165653473
114,114,0.8105926463412552,0.8,0,495.0,572.0,0.0,73.0,1,0.423875558533515
115,115,-0.06684416438447216,-0.1,1,350.0,698.0,1.0,402.0,1,0.33332691260452874
116,116,0.36815028067302036,0.4,0,437.0,883.0,1.0,-40.0,0,0.32527611197980844
117,117,0.3993320534886948,0.4,0,311.0,902.0,0.0,247.0,1,0.31514887701092736
118,118,0.1990560289085015,0.2,0,373.0,968.0,0.0,1129.0,1,0.45462408981854735
119,119,0.8732453872111929,0.9,0,305.0,741.0,0.0,144.0,1,0.31758855641434797
120,120,0.38189789752485437,0.4,0,493.0,782.0,0.0,-855.0,1,0.2560961666824201
121,121,0.9467866615917875,0.9,0,335.0,555.0,0.0,70.0,1,0.2924169130913703
122,122,-0.35245013426825844,-0.4,1,468.0,907.0,1.0,145.0,1,0.3589981555757319
123,123,0.09016629399984799,0.1,0,432.0,797.0,0.0,1111.0,1,0.2278850798624337
124,124,0.9089421083822731,0.9,0,360.0,612.0,0.0,278.0,1,0.4282809998547523
125,125,-0.6750294638757883,-0.7,1,310.0,592.0,1.0,108.0,1,0.37041977736247994
126,126,-0.7723163965994402,-0.8,1,494.0,652.0,1.0,-106.0,1,0.33332014471503946
127,127,0.015799783389852884,0.0,0,328.0,921.0,0.0,981.0,1,0.20489542001194394
128,128,-0.8912739243296832,-0.9,1,459.0,770.0,1.0,201.0,1,0.3334980236373438
129,129,0.5012326633241051,0.5,0,418.0,584.0,0.0,408.0,1,0.23595772596946726
130,130,0.8927791094821553,0.9,0,403.0,854.0,0.0,113.0,1,0.42930480887055367
131,131,-0.7601892259639604,-0.8,1,372.0,798.0,1.0,170.0,1,0.24986515355487082
132,132,0.3173042551483223,0.3,0,384.0,578.0,0.0,358.0,1,0.45110721141495586
133,133,-0.9046823768568824,-0.9,1,462.0,998.0,1.0,270.0,1,0.21311782912848976
134,134,0.3111060669413055,0.3,0,410.0,960.0,1.0,-130.0,0,0.48579148377631304
135,135,-0.9255961614784969,-0.9,1,398.0,768.0,1.0,334.0,1,0.24219115260214
136,136,0.43068266699519997,0.4,0,429.0,918.0,1.0,-247.0,0,0.3950129626408381
137,137,-0.33433950820654124,-0.3,1,472.0,746.0,1.0,282.0,1,0.2846144846261363
138,138,-0.35649891008392465,-0.4,1,319.0,898.0,1.0,103.0,1,0.24325784923966817
139,139,-0.22465377584758084,-0.2,1,393.0,569.0,1.0,148.0,1,0.45617331954728646
140,140,-0.5755053809221906,-0.6,1,465.0,723.0,1.0,72.0,1,0.2716558343424273
141,141,-0.7404754234718218,-0.7,1,439.0,848.0,1.0,-57.0,1,0.40202818020243564
142,142,-0.5083543816527125,-0.5,1,322.0,964.0,1.0,244.0,1,0.4479466016076309
143,143,-0.9099282439705692,-0.9,1,368.0,640.0,1.0,242.0,1,0.3596288123755692
144,144,0.9169471252309978,0.9,0,470.0,602.0,0.0,128.0,1,0.286844434758403
145,145,-0.010189670560360131,-0.0,1,280.0,687.0,1.0,-617.0,1,0.4268131853052886
146,146,0.09186733082913623,0.1,0,314.0,812.0,0.0,-586.0,1,0.46273743041648213
147,147,0.8812459301316955,0.9,0,317.0,772.0,0.0,71.0,1,0.4383045710821394
148,148,0.3899138586225983,0.4,0,470.0,794.0,0.0,256.0,1,0.3420550664052422
149,149,-0.9218830316956088,-0.9,1,258.0,725.0,1.0,167.0,1,0.22887561116204
150,150,-0.37267342847409046,-0.4,1,252.0,547.0,1.0,-139.0,1,0.4484435681705279
151,151,0.31137365377348925,0.3,0,489.0,672.0,0.0,379.0,1,0.3697040124659652
152,152,0.8872190053117646,0.9,0,403.0,692.0,0.0,105.0,1,0.3704436073668328
153,153,0.8558418519535387,0.9,0,289.0,719.0,0.0,132.0,1,0.20139914475965584
154,154,0.4947006376495797,0.5,0,471.0,849.0,1.0,-90.0,0,0.4407604355179393
155,155,0.49524516758071346,0.5,0,386.0,554.0,1.0,-90.0,0,0.3794277771363107
156,156,0.17122939964956596,0.2,0,339.0,896.0,0.0,635.0,1,0.3355980378026232
157,157,0.1657799730905929,0.2,0,459.0,843.0,1.0,-12.0,0,0.3908380751703058
158,158,0.34362286284719046,0.3,0,265.0,852.0,0.0,583.0,1,0.49601719807048966
159,159,-0.04837277750877078,-0.0,1,330.0,514.0,1.0,886.0,1,0.4506024979170175
160,160,0.09113425346391257,0.1,0,415.0,845.0,0.0,330.0,1,0.23675299636197647
161,161,-0.5757514202653604,-0.6,1,352.0,576.0,1.0,82.0,1,0.3981866843035624
162,162,-0.5399804001593496,-0.5,1,263.0,900.0,1.0,127.0,1,0.3469837986216573
163,163,-0.6919778025938053,-0.7,1,270.0,708.0,1.0,232.0,1,0.23545225811134918
164,164,-0.0843150512907489,-0.1,1,283.0,576.0,1.0,341.0,1,0.3016981153329142
165,165,0.32829678563958664,0.3,0,468.0,695.0,0.0,337.0,1,0.20505496309316779
166,166,0.38472915438038613,0.4,0,349.0,503.0,1.0,-272.0,0,0.4929993904129123
167,167,0.5507162642943937,0.6,0,462.0,872.0,0.0,96.0,1,0.43633444769044993
168,168,0.8313781232004824,0.8,0,445.0,574.0,0.0,141.0,1,0.3314555549190198
169,169,0.014538785859468328,0.0,0,345.0,673.0,1.0,312.0,0,0.23686717592263018
170,170,0.7021102422423544,0.7,0,379.0,887.0,0.0,104.0,1,0.22313522528292307
171,171,0.6257238328815369,0.6,0,250.0,948.0,1.0,-148.0,0,0.4462685512195194
172,172,-0.8909076794427122,-0.9,1,386.0,665.0,1.0,269.0,1,0.3683359467387414
173,173,0.9634417917306435,1.0,0,425.0,553.0,0.0,102.0,1,0.409549736015131
174,174,0.8684564223734907,0.9,0,484.0,830.0,1.0,-494.0,0,0.49279970613782065
175,175,-0.7123537725018108,-0.7,1,492.0,723.0,1.0,285.0,1,0.3393844775451147
176,176,-0.5913969444977263,-0.6,1,434.0,775.0,1.0,131.0,1,0.3489236005689752
177,177,0.8928841526525224,0.9,0,440.0,901.0,0.0,89.0,1,0.30107919835398494
178,178,-0.831110479911068,-0.8,1,327.0,909.0,1.0,274.0,1,0.3976439545022822
179,179,-0.942447696831995,-0.9,1,439.0,699.0,1.0,-358.0,1,0.3745246933215958
180,180,0.30970922982589344,0.3,0,459.0,662.0,0.0,69.0,1,0.43121620856042
181,181,0.731711614259186,0.7,0,484.0,872.0,0.0,244.0,1,0.2988106961834251
182,182,-0.059294099938064226,-0.1,1,295.0,942.0,1.0,713.0,1,0.2958185775830638
183,183,0.3564401720703094,0.4,0,461.0,554.0,0.0,365.0,1,0.38998254974922186
184,184,0.003721817648684178,0.0,0,417.0,597.0,0.0,736.0,1,0.3284275203088495
185,185,0.30980825692546876,0.3,0,424.0,876.0,0.0,310.0,1,0.37593367909027464
186,186,-0.24831557337050514,-0.2,1,265.0,556.0,1.0,229.0,1,0.3066599589354815
187,187,0.7922942998544948,0.8,0,472.0,698.0,0.0,410.0,1,0.20604399143863528
188,188,-0.13414287223598387,-0.1,1,431.0,567.0,1.0,42.0,1,0.44653899765941496
189,189,-0.6065617116193271,-0.6,1,260.0,907.0,1.0,133.0,1,0.254627938006892
190,190,-0.5232120907358437,-0.5,1,488.0,744.0,1.0,-552.0,1,0.44747519074237885
191,191,-0.2753378946886087,-0.3,1,476.0,961.0,1.0,-417.0,1,0.34714834635095426
192,192,-0.25846700390654576,-0.3,1,359.0,900.0,1.0,131.0,1,0.2679946001674571
193,193,0.6176268365189848,0.6,0,375.0,616.0,0.0,189.0,1,0.21992208616568149
194,194,-0.42165286521382583,-0.4,1,266.0,519.0,1.0,415.0,1,0.27293904814919867
195,195,0.7926092646793634,0.8,0,284.0,710.0,0.0,146.0,1,0.26606487067905826
196,196,-0.7478535299389546,-0.7,1,343.0,520.0,1.0,197.0,1,0.3378492026634967
197,197,-0.94880769206236,-0.9,1,441.0,801.0,1.0,288.0,1,0.46766190992504986
198,198,-0.7308761463563516,-0.7,1,319.0,728.0,1.0,-17.0,1,0.4562010240805653
199,199,0.18972983598130333,0.2,0,388.0,644.0,1.0,-462.0,0,0.4746610993815526
200,200,0.3890258327543179,0.4,0,318.0,640.0,1.0,112.0,0,0.4760550994964162
201,201,-0.7751918405825886,-0.8,1,290.0,618.0,1.0,192.0,1,0.2937931785499934
202,202,0.05384501490683702,0.1,0,345.0,647.0,1.0,-102.0,0,0.4314913028322526
203,203,0.47448102838205397,0.5,0,442.0,879.0,0.0,579.0,1,0.4263048401374446
204,204,0.732591471130642,0.7,0,464.0,507.0,0.0,149.0,1,0.2222380800533144
205,205,-0.23593853961988853,-0.2,1,370.0,544.0,1.0,356.0,1,0.277019770435988
206,206,0.0011314434926892325,0.0,0,400.0,686.0,1.0,404.0,0,0.20135158242538223
207,207,0.014814395655105228,0.0,0,287.0,969.0,1.0,724.0,0,0.2283209232966949
208,208,0.7530123317246709,0.8,0,470.0,913.0,1.0,-1233.0,0,0.49192563593622074
209,209,-0.6019244827321804,-0.6,1,346.0,858.0,1.0,16.0,1,0.3922718486661272
210,210,0.10010942152304914,0.1,0,382.0,522.0,1.0,276.0,0,0.4484560542127888
211,211,0.7872477558680184,0.8,0,277.0,676.0,0.0,157.0,1,0.37664665305913564
212,212,-0.8417063879002467,-0.8,1,484.0,586.0,1.0,380.0,1,0.4674183443155924
213,213,-0.15457504220331275,-0.2,1,265.0,727.0,1.0,168.0,1,0.21046424754790816
214,214,0.7348329708356558,0.7,0,253.0,944.0,0.0,273.0,1,0.23281902258633333
215,215,0.9007671431887068,0.9,0,372.0,565.0,0.0,183.0,1,0.27299054441408727
216,216,-0.17187214650216798,-0.2,1,292.0,613.0,1.0,365.0,1,0.20390728857921148
217,217,0.3288161939013128,0.3,0,458.0,709.0,0.0,303.0,1,0.23304192934632048
218,218,-0.282447297316226,-0.3,1,425.0,756.0,1.0,339.0,1,0.40715982290756825
219,219,0.7827644880375806,0.8,0,458.0,803.0,0.0,289.0,1,0.20362498605256446
220,220,0.3985616191282564,0.4,0,345.0,796.0,0.0,429.0,1,0.35270973433184666
221,221,-0.6595287947131923,-0.7,1,449.0,524.0,1.0,187.0,1,0.3495068382328387
222,222,-0.1856940808622285,-0.2,1,338.0,755.0,1.0,737.0,1,0.4267900554043896
223,223,0.263945960573958,0.3,0,308.0,923.0,0.0,199.0,1,0.2623216807526435
224,224,0.05130748574983057,0.1,0,499.0,685.0,0.0,1926.0,1,0.2898356827026768
225,225,0.49928659379785456,0.5,0,253.0,798.0,0.0,199.0,1,0.25527955161453886
226,226,0.670990549676552,0.7,0,349.0,948.0,0.0,163.0,1,0.28940421438080605
227,227,0.7424807694151685,0.7,0,439.0,561.0,0.0,260.0,1,0.3398060064438735
228,228,0.2550155669116494,0.3,0,319.0,591.0,0.0,1550.0,1,0.46696840135205336
229,229,-0.1564858478079103,-0.2,1,440.0,993.0,1.0,747.0,1,0.37838785708859657
230,230,0.8624954017766449,0.9,0,305.0,734.0,0.0,131.0,1,0.3780567162653711
231,231,-0.6595709401775218,-0.7,1,305.0,704.0,1.0,131.0,1,0.359114365661267
232,232,-0.5891789730729275,-0.6,1,389.0,658.0,1.0,243.0,1,0.29754657213060964
233,233,-0.9590945850224428,-1.0,1,429.0,587.0,1.0,254.0,1,0.3347201888405652
234,234,0.31508314633149404,0.3,0,478.0,760.0,0.0,802.0,1,0.3962772192229095
235,235,-0.8027539258642729,-0.8,1,319.0,698.0,1.0,263.0,1,0.25696506735616337
236,236,-0.629660578870963,-0.6,1,391.0,992.0,1.0,187.0,1,0.38786999637090824
237,237,-0.7781813578240455,-0.8,1,259.0,971.0,1.0,180.0,1,0.4067162396182227
238,238,-0.09420317756437302,-0.1,1,408.0,626.0,1.0,286.0,1,0.20274931662670626
239,239,-0.8431776780094571,-0.8,1,441.0,932.0,1.0,137.0,1,0.4705391521422089
240,240,0.7415374818136338,0.7,0,391.0,824.0,0.0,185.0,1,0.465663028590689
241,241,0.41822956758418717,0.4,0,396.0,960.0,0.0,254.0,1,0.43906259276547954
242,242,0.32456023975144155,0.3,0,417.0,947.0,1.0,116.0,0,0.35904988835346674
243,243,0.045023050761887395,0.0,0,442.0,862.0,1.0,-284.0,0,0.3879130377824828
244,244,0.31011331471879067,0.3,0,383.0,920.0,0.0,127.0,1,0.3183276265656076
245,245,0.5809752573697295,0.6,0,263.0,610.0,0.0,277.0,1,0.3073492810798871
246,246,-0.3871899844182314,-0.4,1,495.0,674.0,1.0,121.0,1,0.3439538269282162
247,247,0.21642571527350563,0.2,0,309.0,932.0,0.0,809.0,1,0.3556684958199092
248,248,0.13344881027621525,0.1,0,410.0,589.0,0.0,251.0,1,0.41111287762122645
249,249,-0.2013380961426452,-0.2,1,416.0,985.0,1.0,-1051.0,1,0.4291500949829668
250,250,0.4793111919431956,0.5,0,455.0,921.0,1.0,-876.0,0,0.4973340983706578
251,251,0.15541250028214204,0.2,0,460.0,796.0,0.0,3744.0,1,0.23706154294524323
252,252,0.783645703638516,0.8,0,472.0,786.0,1.0,-848.0,0,0.4145937820680624
253,253,0.014450055169353826,0.0,0,288.0,998.0,1.0,394.0,0,0.34473167712043046
254,254,-0.43450576636004845,-0.4,1,350.0,867.0,1.0,73.0,1,0.27136583855342183
255,255,0.390638495107519,0.4,0,331.0,717.0,0.0,322.0,1,0.23607694251429445
256,256,0.034114622328975,0.0,0,495.0,869.0,1.0,366.0,0,0.2851336965045234
257,257,-0.9288648847696532,-0.9,1,469.0,931.0,1.0,210.0,1,0.22006090719060173
258,258,-0.5148673006047766,-0.5,1,376.0,660.0,1.0,114.0,1,0.3231195304254831
259,259,0.947167631559428,0.9,0,460.0,727.0,0.0,93.0,1,0.4122165143998854
260,260,0.12217525854976219,0.1,0,447.0,551.0,1.0,782.0,0,0.25944381337595246
261,261,-0.48767319031564216,-0.5,1,367.0,624.0,1.0,339.0,1,0.2685272283920474
262,262,0.21892898485965828,0.2,0,293.0,842.0,0.0,665.0,1,0.3409328342239806
263,263,-0.384111349656868,-0.4,1,361.0,818.0,1.0,101.0,1,0.2459066744298153
264,264,0.4471359769976484,0.4,0,481.0,847.0,0.0,122.0,1,0.37021863326571786
265,265,-0.9887037807561583,-1.0,1,491.0,635.0,0.0,-646.0,0,0.4236408358751764
266,266,0.5240621181136347,0.5,0,363.0,981.0,0.0,446.0,1,0.31211522354275445
267,267,-0.407937736596931,-0.4,1,285.0,712.0,1.0,83.0,1,0.40278625002151025
268,268,0.07271604084697669,0.1,0,379.0,734.0,1.0,867.0,0,0.2991326031411271
269,269,-0.4900190876085284,-0.5,1,266.0,760.0,1.0,204.0,1,0.3043304499520671
270,270,-0.04785499029316975,-0.0,1,433.0,549.0,1.0,338.0,1,0.31025817270113565
271,271,0.7037974444097779,0.7,0,382.0,901.0,0.0,627.0,1,0.2993704052071038
272,272,0.568550562001839,0.6,0,449.0,910.0,0.0,461.0,1,0.37176794522475526
273,273,0.42582063548480886,0.4,0,431.0,911.0,0.0,228.0,1,0.2372524230827265
274,274,-0.05256076730001502,-0.1,1,474.0,820.0,1.0,286.0,1,0.27820094188709504
275,275,0.8835971481903793,0.9,0,369.0,680.0,0.0,141.0,1,0.2080327170534471
276,276,0.7906292152484102,0.8,0,389.0,521.0,0.0,70.0,1,0.210945718530532
277,277,-0.7359838026942187,-0.7,1,338.0,669.0,1.0,133.0,1,0.2420473434740312
278,278,0.6743689704500304,0.7,0,322.0,727.0,0.0,341.0,1,0.337402745710481
279,279,-0.49614442146974547,-0.5,1,252.0,805.0,1.0,453.0,1,0.48629098025255346
280,280,-0.09220869823266775,-0.1,1,412.0,961.0,1.0,567.0,1,0.28330173828047583
281,281,0.2258707076715778,0.2,0,417.0,942.0,0.0,111.0,1,0.39645598930635106
282,282,-0.16758558157076098,-0.2,1,458.0,764.0,1.0,248.0,1,0.4783998615378669
283,283,-0.6784004207498102,-0.7,1,326.0,602.0,1.0,162.0,1,0.27706160121230217
284,284,0.24609648167872722,0.2,0,430.0,721.0,0.0,469.0,1,0.41877363188576133
285,285,-0.8477117819818367,-0.8,1,452.0,693.0,1.0,175.0,1,0.33500425052999117
286,286,0.2920140678430798,0.3,0,411.0,662.0,0.0,187.0,1,0.20667423824694658
287,287,0.7736440563903872,0.8,0,429.0,678.0,1.0,-437.0,0,0.45775189730701804
288,288,0.6435417655216238,0.6,0,278.0,781.0,0.0,361.0,1,0.2762093407151237
289,289,-0.9794383359597945,-1.0,1,464.0,526.0,1.0,80.0,1,0.2990464298511597
290,290,0.5002621656192634,0.5,0,298.0,814.0,0.0,178.0,1,0.2952023486207065
291,291,0.20295084849411826,0.2,0,317.0,670.0,0.0,393.0,1,0.39494183734348376
292,292,-0.2545773512750069,-0.3,1,499.0,582.0,1.0,289.0,1,0.24706823282472523
293,293,0.5326721305226823,0.5,0,472.0,543.0,0.0,195.0,1,0.36458074801829554
294,294,-0.7327663159633195,-0.7,1,385.0,599.0,1.0,116.0,1,0.4067308871008104
295,295,0.4821770372883216,0.5,0,277.0,665.0,0.0,218.0,1,0.23931755547865477
296,296,0.5077849501714431,0.5,0,480.0,923.0,0.0,267.0,1,0.292338952745182
297,297,0.7268482282779445,0.7,0,359.0,620.0,0.0,61.0,1,0.3395574350072342
298,298,-0.9104426338958338,-0.9,1,319.0,744.0,1.0,297.0,1,0.27155434009657475
299,299,-0.9713886841000683,-1.0,1,411.0,877.0,1.0,112.0,1,0.24673363572749743
300,300,0.32776850259555546,0.3,0,387.0,585.0,0.0,388.0,1,0.2107258205057681
301,301,0.6047884680975217,0.6,0,268.0,823.0,1.0,-611.0,0,0.3626441909488507
302,302,-0.6789925102081478,-0.7,1,311.0,947.0,1.0,182.0,1,0.3222802270631039
303,303,0.38413267770184345,0.4,0,355.0,501.0,0.0,324.0,1,0.28016458500317065
304,304,-0.36781856893005305,-0.4,1,327.0,680.0,1.0,773.0,1,0.3518315919242229
305,305,-0.05680228658750597,-0.1,1,467.0,818.0,1.0,-275.0,1,0.40961970402874337
306,306,0.48324751916978204,0.5,0,253.0,648.0,0.0,299.0,1,0.48256985539726704
307,307,0.31670769275234467,0.3,0,459.0,902.0,1.0,-81.0,0,0.43469790344147385
308,308,0.6741005990211124,0.7,0,403.0,918.0,1.0,-1001.0,0,0.3824859090834335
309,309,-0.24087119502782883,-0.2,1,473.0,924.0,1.0,843.0,1,0.20425272133122793
310,310,-0.9504568908232534,-1.0,1,472.0,658.0,1.0,430.0,1,0.39318355281529216
311,311,-0.09107036188533124,-0.1,1,432.0,841.0,1.0,77.0,1,0.3227428071344695
312,312,0.8787121676684233,0.9,0,361.0,935.0,0.0,264.0,1,0.36900897731071314
313,313,-0.10163597016235526,-0.1,1,455.0,567.0,1.0,-312.0,1,0.36127857090342474
314,314,-0.5836155413239601,-0.6,1,290.0,667.0,1.0,103.0,1,0.25443890989167456
315,315,0.9951684528634004,1.0,0,466.0,857.0,0.0,207.0,1,0.25231701340494844
316,316,0.8700346639357321,0.9,0,301.0,838.0,0.0,191.0,1,0.20832470299902275
317,317,0.6943174906061134,0.7,0,272.0,944.0,0.0,324.0,1,0.27787278317194153
318,318,0.43488617422947407,0.4,0,328.0,564.0,0.0,358.0,1,0.4221885929577289
319,319,0.6563917624741529,0.7,0,492.0,732.0,1.0,-794.0,0,0.46874768336096745
320,320,0.18383081884754193,0.2,0,357.0,601.0,0.0,232.0,1,0.20428379003820515
321,321,0.393254648929108,0.4,0,319.0,687.0,1.0,-146.0,0,0.4776441514878461
322,322,0.924740515654694,0.9,0,363.0,864.0,0.0,193.0,1,0.2231097162773413
323,323,-0.16727416285974694,-0.2,1,364.0,837.0,1.0,559.0,1,0.4405535019991625
324,324,-0.36274988236541517,-0.4,1,310.0,940.0,1.0,-170.0,1,0.4694322409630868
325,325,-0.6939946817830667,-0.7,1,264.0,923.0,1.0,613.0,1,0.40760579347784587
326,326,0.025072775399176406,0.0,0,345.0,821.0,1.0,364.0,0,0.3313923211666038
327,327,-0.8432119851153312,-0.8,1,310.0,540.0,1.0,-110.0,1,0.4846378092547659
328,328,0.4678633576462934,0.5,0,393.0,696.0,0.0,161.0,1,0.20976081014372905
329,329,-0.7183860117355618,-0.7,1,334.0,826.0,1.0,120.0,1,0.32777539472635864
330,330,0.2618031791322182,0.3,0,419.0,739.0,0.0,322.0,1,0.2193802909772659
331,331,-0.35537865270697866,-0.4,1,322.0,981.0,1.0,577.0,1,0.26056678891206286
332,332,0.6619603144255697,0.7,0,345.0,968.0,0.0,167.0,1,0.23314146388040602
333,333,0.03477598187095032,0.0,0,482.0,663.0,1.0,-135.0,0,0.37397807650045295
334,334,-0.6937471949084937,-0.7,1,437.0,930.0,1.0,-397.0,1,0.4832039045317768
335,335,-0.8394335713554117,-0.8,1,463.0,877.0,1.0,270.0,1,0.25941584452486005
336,336,0.9220920157570618,0.9,0,471.0,817.0,0.0,132.0,1,0.34814139414632683
337,337,0.6936327852096105,0.7,0,258.0,539.0,0.0,363.0,1,0.3664070170307112
338,338,-0.2840276100185197,-0.3,1,264.0,716.0,1.0,520.0,1,0.32650858768281277
339,339,-0.6590645024118835,-0.7,1,439.0,860.0,1.0,-639.0,1,0.49804002992283736
340,340,-0.656226786935052,-0.7,1,270.0,863.0,1.0,-333.0,1,0.42475779817597387
341,341,0.09487350547009976,0.1,0,463.0,705.0,0.0,1032.0,1,0.3977975262441278
342,342,0.7916252206857417,0.8,0,357.0,801.0,0.0,242.0,1,0.2463970211483808
343,343,0.3307343191800851,0.3,0,375.0,510.0,0.0,345.0,1,0.33295080827344986
344,344,0.5478918464437947,0.5,0,385.0,518.0,0.0,427.0,1,0.4426632406901614
345,345,0.09085578783465609,0.1,0,492.0,734.0,1.0,14.0,0,0.4358121659186569
346,346,0.5733756515180144,0.6,0,344.0,644.0,0.0,552.0,1,0.2334684967166944
347,347,-0.289126749500056,-0.3,1,444.0,801.0,1.0,535.0,1,0.32557532307086334
348,348,0.6577210793163084,0.7,0,420.0,773.0,0.0,347.0,1,0.24052955913151303
349,349,0.13789563402794158,0.1,0,362.0,916.0,0.0,932.0,1,0.439568704952661
350,350,-0.19383109698467882,-0.2,1,416.0,939.0,1.0,-355.0,1,0.48308562040015024
351,351,0.6075235229803044,0.6,0,317.0,695.0,1.0,-552.0,0,0.49349065160816386
352,352,-0.19561061278223812,-0.2,1,268.0,825.0,1.0,-423.0,1,0.46500649815818035
353,353,-0.43442329946102687,-0.4,1,274.0,724.0,1.0,112.0,1,0.33088944153265937
354,354,-0.7159072081185363,-0.7,1,364.0,700.0,1.0,86.0,1,0.4187251186979731
355,355,0.2570504678049421,0.3,0,462.0,867.0,0.0,261.0,1,0.26862557879510573
356,356,-0.8240929340337715,-0.8,1,326.0,823.0,1.0,181.0,1,0.38815466574688673
357,357,0.041351701717117884,0.0,0,257.0,525.0,1.0,1188.0,0,0.36699354798330375
358,358,-0.9676965328756038,-1.0,1,278.0,803.0,1.0,239.0,1,0.2269637892522677
359,359,0.9519022220329107,1.0,0,436.0,894.0,0.0,150.0,1,0.2774225903759332
360,360,0.6649733545441832,0.7,0,379.0,979.0,0.0,562.0,1,0.25898656702008854
361,361,0.5855383743117915,0.6,0,448.0,735.0,1.0,-123.0,0,0.4387025342618128
362,362,-0.9210719128024025,-0.9,1,384.0,732.0,1.0,84.0,1,0.4652394070804129
363,363,0.8985098150051241,0.9,0,488.0,934.0,0.0,118.0,1,0.25709432725291165
364,364,0.8539729575512021,0.9,0,381.0,722.0,0.0,167.0,1,0.47411171712000555
365,365,-0.009154356338728409,-0.0,1,489.0,539.0,0.0,442.0,0,0.3370227653150847
366,366,0.791741245841372,0.8,0,491.0,515.0,0.0,174.0,1,0.3683727859668342
367,367,0.5521137017648294,0.6,0,326.0,648.0,0.0,226.0,1,0.29837769137419484
368,368,-0.1483944827560828,-0.1,1,401.0,755.0,1.0,364.0,1,0.2912237330205498
369,369,-0.6820300034520286,-0.7,1,460.0,757.0,1.0,113.0,1,0.2941657625086161
370,370,0.5652929769097494,0.6,0,405.0,739.0,0.0,126.0,1,0.4284590996472469
371,371,0.9452934733918126,0.9,0,363.0,941.0,0.0,126.0,1,0.31975272042488245
372,372,0.6078769852337804,0.6,0,443.0,918.0,0.0,209.0,1,0.29467559780869507
373,373,0.0645300835084961,0.1,0,443.0,938.0,0.0,1179.0,1,0.25785360025074444
374,374,0.1627214115680078,0.2,0,404.0,909.0,1.0,-623.0,0,0.3869362148257096
375,375,-0.5115902658540585,-0.5,1,377.0,873.0,1.0,-1040.0,1,0.41864390934909324
376,376,-0.7127437889416048,-0.7,1,382.0,850.0,1.0,-52.0,1,0.3754783462883175
377,377,-0.896441865852595,-0.9,1,486.0,799.0,1.0,295.0,1,0.42429732345485127
378,378,0.9166036678555984,0.9,0,267.0,794.0,0.0,199.0,1,0.25456170336422235
379,379,-0.08818509623675674,-0.1,1,414.0,692.0,1.0,1104.0,1,0.3321472394617776
380,380,-0.37959496027827555,-0.4,1,498.0,953.0,1.0,129.0,1,0.3916853830658565
381,381,0.7363052906378067,0.7,0,357.0,602.0,0.0,741.0,1,0.4457109674112214
382,382,-0.6553935214564197,-0.7,1,397.0,748.0,1.0,-75.0,1,0.3580820956640474
383,383,-0.18526911126367263,-0.2,1,391.0,832.0,1.0,797.0,1,0.38930792553888294
384,384,0.3799172841236971,0.4,0,356.0,687.0,0.0,-733.0,1,0.41093194558898216
385,385,0.5188003353939186,0.5,0,252.0,635.0,0.0,273.0,1,0.47488544577127056
386,386,0.6553380111497227,0.7,0,311.0,631.0,0.0,218.0,1,0.2317573711835391
387,387,-0.3574579849667632,-0.4,1,479.0,850.0,1.0,211.0,1,0.31931428311555954
388,388,0.11415304385023761,0.1,0,288.0,551.0,1.0,-59.0,0,0.4746049944797458
389,389,0.2467399251791329,0.2,0,362.0,969.0,1.0,-941.0,0,0.45329753972986697
390,390,-0.817689874614643,-0.8,1,270.0,523.0,1.0,297.0,1,0.3618795371983202
391,391,0.2833687399189715,0.3,0,495.0,884.0,0.0,741.0,1,0.277682406709323
392,392,-0.8705476480564853,-0.9,1,359.0,928.0,1.0,263.0,1,0.24481423379345912
393,393,-0.7095441506840754,-0.7,1,292.0,736.0,1.0,302.0,1,0.4798167861618308
394,394,0.7524425582086871,0.8,0,280.0,878.0,0.0,422.0,1,0.23607429573233396
395,395,0.38625705278351496,0.4,0,340.0,647.0,0.0,163.0,1,0.28795693660067273
396,396,-0.23359413018402386,-0.2,1,340.0,614.0,1.0,-354.0,1,0.47140044913270146
397,397,-0.8272591818299222,-0.8,1,351.0,584.0,1.0,75.0,1,0.37266643658653753
398,398,-0.6372235307985596,-0.6,1,294.0,954.0,1.0,192.0,1,0.38122679474111243
399,399,0.27724865202911997,0.3,0,454.0,698.0,1.0,-362.0,0,0.35746808114842576
400,400,0.08812150154406906,0.1,0,299.0,589.0,0.0,602.0,1,0.2859621470762481
401,401,-0.4031027650246335,-0.4,1,407.0,503.0,1.0,170.0,1,0.4100952066117013
402,402,0.21538366016760668,0.2,0,398.0,822.0,0.0,590.0,1,0.24966086607729684
403,403,-0.9084339601407994,-0.9,1,433.0,955.0,1.0,-418.0,1,0.43265291678214446
404,404,-0.3844972738944077,-0.4,1,409.0,901.0,1.0,40.0,1,0.4828844778998765
405,405,0.7147839136406458,0.7,0,396.0,714.0,0.0,210.0,1,0.22924939801333571
406,406,-0.6012053796400372,-0.6,1,287.0,875.0,1.0,88.0,1,0.41816968169110724
407,407,-0.8036123101002275,-0.8,1,403.0,880.0,1.0,217.0,1,0.29367980540308625
408,408,0.5159766895101374,0.5,0,432.0,588.0,0.0,190.0,1,0.26658813190244535
409,409,-0.2969060726333219,-0.3,1,306.0,860.0,1.0,314.0,1,0.2985359342024432
410,410,-0.8279069703578756,-0.8,1,446.0,733.0,1.0,61.0,1,0.4641188066487477
411,411,0.23765646462792178,0.2,0,362.0,648.0,0.0,260.0,1,0.33384857932017836
412,412,0.46843951008651485,0.5,0,254.0,766.0,0.0,340.0,1,0.3092038217227415
413,413,-0.8365817808885345,-0.8,1,395.0,927.0,1.0,148.0,1,0.44126255981588786
414,414,-0.5939004648137076,-0.6,1,438.0,899.0,1.0,153.0,1,0.28089071235548707
415,415,0.4237045272418605,0.4,0,304.0,733.0,1.0,-297.0,0,0.449394496809791
416,416,-0.0817781289506978,-0.1,1,418.0,816.0,1.0,336.0,1,0.379791690829022
417,417,-0.5166043967939149,-0.5,1,469.0,647.0,1.0,334.0,1,0.3577408286083232
418,418,0.21736721789146007,0.2,0,437.0,719.0,0.0,314.0,1,0.299234431111951
419,419,0.7984664537475086,0.8,0,278.0,592.0,0.0,150.0,1,0.3068174781572676
420,420,0.7924844133756039,0.8,0,345.0,542.0,0.0,143.0,1,0.3713013824728389
421,421,-0.5345526142952677,-0.5,1,460.0,711.0,1.0,99.0,1,0.3081567229420288
422,422,0.847327819723702,0.8,0,440.0,696.0,0.0,154.0,1,0.20723034037899452
423,423,0.5890386387807822,0.6,0,490.0,919.0,1.0,-559.0,0,0.4514041392713661
424,424,-0.7827912347180699,-0.8,1,442.0,868.0,1.0,-740.0,1,0.4750577434873172
425,425,-0.5325524453907289,-0.5,1,369.0,585.0,1.0,266.0,1,0.45196078458986466
426,426,0.7543549772613998,0.8,0,466.0,925.0,1.0,-951.0,0,0.49836679456469174
427,427,-0.2708076617580981,-0.3,1,277.0,756.0,0.0,17.0,0,0.4186475690659379
428,428,-0.25492162744984026,-0.3,1,426.0,506.0,1.0,98.0,1,0.3987453540543209
429,429,0.07490972403267704,0.1,0,255.0,813.0,0.0,342.0,1,0.37447909878849106
430,430,-0.17470130520359994,-0.2,1,381.0,935.0,1.0,534.0,1,0.3417967731342786
431,431,0.1982965281377156,0.2,0,395.0,734.0,1.0,381.0,0,0.3211025070501313
432,432,0.5266818266855096,0.5,0,271.0,848.0,0.0,411.0,1,0.39604222014571777
433,433,-0.40550064596881374,-0.4,1,394.0,513.0,1.0,133.0,1,0.3933551350070848
434,434,0.2430518809543536,0.2,0,455.0,557.0,1.0,-762.0,0,0.44204959160274704
435,435,-0.9812284918991183,-1.0,1,415.0,938.0,1.0,327.0,1,0.27593686606937207
436,436,0.8761188646891662,0.9,0,327.0,903.0,0.0,480.0,1,0.4885101592900639
437,437,-0.22143403043401033,-0.2,1,406.0,810.0,1.0,94.0,1,0.3385298822722378
438,438,0.5816586076287771,0.6,0,443.0,574.0,0.0,83.0,1,0.25382558180108583
439,439,-0.6299180059762448,-0.6,1,330.0,823.0,1.0,167.0,1,0.36882520819345455
440,440,-0.8863172463882754,-0.9,1,452.0,562.0,1.0,306.0,1,0.43506524457308304
441,441,0.64666561940606,0.6,0,471.0,731.0,0.0,288.0,1,0.2418177972344169
442,442,-0.7020802231128898,-0.7,1,264.0,942.0,1.0,364.0,1,0.32042137118136116
443,443,0.4232222181330112,0.4,0,419.0,809.0,0.0,372.0,1,0.2507145085595991
444,444,-0.37729245857120963,-0.4,1,387.0,539.0,1.0,324.0,1,0.3451159510834204
445,445,-0.16248411260554008,-0.2,1,432.0,515.0,1.0,-597.0,1,0.3964808020886944
446,446,0.6345921069879485,0.6,0,386.0,701.0,1.0,-757.0,0,0.48858128100450665
447,447,-0.7195345350967399,-0.7,1,349.0,930.0,1.0,101.0,1,0.48643386467955124
448,448,0.8281771408970588,0.8,0,387.0,698.0,0.0,175.0,1,0.4072332407745062
449,449,0.6424895680774445,0.6,0,356.0,967.0,1.0,-1013.0,0,0.4951188205357616
450,450,0.18381806481422802,0.2,0,329.0,776.0,0.0,725.0,1,0.3786423957244467
451,451,-0.3105353578533021,-0.3,1,394.0,713.0,1.0,203.0,1,0.38035080037762226
452,452,0.6192750607183224,0.6,0,280.0,901.0,0.0,209.0,1,0.2931201465880555
453,453,-0.8983687902316166,-0.9,1,294.0,763.0,1.0,113.0,1,0.46343141288810735
454,454,0.7861766261597705,0.8,0,465.0,931.0,0.0,104.0,1,0.29417799505360565
455,455,0.7448522896110614,0.7,0,442.0,615.0,0.0,213.0,1,0.3067364969483466
456,456,0.1890583568762767,0.2,0,275.0,896.0,0.0,1189.0,1,0.2299012836495475
457,457,0.035970379312696865,0.0,0,318.0,603.0,1.0,489.0,0,0.2367093887320261
458,458,-0.7915440753829834,-0.8,1,395.0,659.0,1.0,-474.0,1,0.34474339691001354
459,459,-0.47987996595189575,-0.5,1,388.0,714.0,1.0,598.0,1,0.3755059071727994
460,460,-0.5838023125695833,-0.6,1,499.0,792.0,1.0,-651.0,1,0.38823238290608597
461,461,-0.05946840392197483,-0.1,1,266.0,755.0,1.0,119.0,1,0.3400225115714765
462,462,-0.9369977349242542,-0.9,1,469.0,663.0,1.0,-742.0,1,0.47568222532024984
463,463,-0.8209994573565176,-0.8,1,447.0,922.0,1.0,431.0,1,0.28763803554507666
464,464,-0.9895377574886419,-1.0,1,491.0,814.0,1.0,-1095.0,1,0.46486990307290327
465,465,0.86175181071108,0.9,0,312.0,622.0,1.0,-64.0,0,0.4587283444033306
466,466,0.43696154942292353,0.4,0,397.0,590.0,0.0,783.0,1,0.29755162978680527
467,467,0.8487062088058306,0.8,0,315.0,997.0,1.0,28.0,0,0.41051633489706263
468,468,-0.6214476446512842,-0.6,1,416.0,881.0,1.0,173.0,1,0.26322459061971965
469,469,0.2850439923833026,0.3,0,478.0,513.0,0.0,739.0,1,0.39460454799344813
470,470,-0.6061030066396269,-0.6,1,441.0,635.0,1.0,-786.0,1,0.4101865351163777
471,471,0.18586841266527343,0.2,0,336.0,761.0,1.0,253.0,0,0.46331062518588856
472,472,-0.21006637618725899,-0.2,1,322.0,991.0,1.0,17.0,1,0.48832905985571884
473,473,-0.9259646294763881,-0.9,1,386.0,622.0,1.0,262.0,1,0.46736397628221044
474,474,0.8573911228486815,0.9,0,481.0,543.0,1.0,-714.0,0,0.4984345933313164
475,475,0.3735720934905,0.4,0,314.0,530.0,1.0,106.0,0,0.2314472671645306
476,476,-0.9074747032686057,-0.9,1,273.0,560.0,1.0,257.0,1,0.25255411297926167
477,477,-0.5991525219736615,-0.6,1,489.0,822.0,1.0,109.0,1,0.2318514352489915
478,478,-0.6125301883451773,-0.6,1,406.0,606.0,1.0,228.0,1,0.353440083634316
479,479,0.736931102578779,0.7,0,392.0,914.0,1.0,-756.0,0,0.4512291163204629
480,480,-0.8020759779016315,-0.8,1,359.0,506.0,1.0,215.0,1,0.2291736805450715
481,481,0.774252001998847,0.8,0,449.0,553.0,0.0,118.0,1,0.32198388594514304
482,482,-0.4615570812107572,-0.5,1,408.0,697.0,1.0,355.0,1,0.3095828606062877
483,483,-0.5803421178672494,-0.6,1,479.0,940.0,1.0,151.0,1,0.20893398366492327
484,484,-0.4420918050295579,-0.4,1,378.0,876.0,1.0,-574.0,1,0.34944192014366304
485,485,-0.3771178065825487,-0.4,1,451.0,798.0,1.0,251.0,1,0.23797539760268777
486,486,0.7200055458972345,0.7,0,399.0,707.0,1.0,-106.0,0,0.42085443130929123
487,487,-0.061682772710088596,-0.1,1,464.0,687.0,1.0,1519.0,1,0.23164000988914027
488,488,-0.0635047597627445,-0.1,1,264.0,657.0,1.0,629.0,1,0.20486505354678608
489,489,0.06656554333720477,0.1,0,254.0,955.0,1.0,771.0,0,0.36935238411549176
490,490,0.8104331502831392,0.8,0,483.0,846.0,0.0,201.0,1,0.2044450368608504
491,491,0.33488654167939536,0.3,0,430.0,671.0,0.0,379.0,1,0.3535899513801687
492,492,0.10144387445627334,0.1,0,495.0,787.0,1.0,168.0,0,0.20744022192600567
493,493,-0.5412413047072022,-0.5,1,375.0,734.0,1.0,191.0,1,0.371903767404116
494,494,-0.15343927709709848,-0.2,1,491.0,649.0,1.0,590.0,1,0.2024035649464558
495,495,0.13766665603956052,0.1,0,346.0,728.0,0.0,2126.0,1,0.28675850603742287
496,496,-0.23423451668716333,-0.2,1,314.0,715.0,1.0,171.0,1,0.4108865850957508
497,497,-0.4658268668990404,-0.5,1,494.0,972.0,1.0,-1066.0,1,0.417658501969121
498,498,-0.144163600580683,-0.1,1,492.0,971.0,1.0,437.0,1,0.2780747066586102
499,499,-0.6471577330446625,-0.6,1,445.0,530.0,1.0,225.0,1,0.30317333747128017
500,500,-0.30438471269044554,-0.3,1,280.0,900.0,1.0,870.0,1,0.2569876352231064
501,501,0.2709991678578392,0.3,0,419.0,587.0,0.0,284.0,1,0.3064962015134654
502,502,0.7062838696535849,0.7,0,350.0,630.0,0.0,200.0,1,0.2772314596556952
503,503,-0.17439291653892974,-0.2,1,412.0,835.0,1.0,563.0,1,0.4142181650700274
504,504,0.5166191861295084,0.5,0,339.0,633.0,1.0,-532.0,0,0.4059646647797265
505,505,0.6126648671162878,0.6,0,406.0,963.0,1.0,-99.0,0,0.4438103627525874
506,506,0.06404750193165443,0.1,0,357.0,773.0,1.0,290.0,0,0.23375882725009045
507,507,0.864656908543564,0.9,0,470.0,563.0,0.0,257.0,1,0.28470436582701525
508,508,0.9285891799586854,0.9,0,469.0,666.0,1.0,-685.0,0,0.4291564678070504
509,509,-0.8517470889292493,-0.9,1,291.0,650.0,1.0,329.0,1,0.20727069082730018
510,510,-0.8549752576559271,-0.9,1,413.0,642.0,1.0,155.0,1,0.2920182936892265
511,511,-0.9451958909263063,-0.9,1,434.0,814.0,1.0,112.0,1,0.33523592880831415
512,512,-0.9227176097602183,-0.9,1,433.0,777.0,1.0,120.0,1,0.3802861057183684
513,513,-0.8075243296983994,-0.8,1,476.0,801.0,1.0,133.0,1,0.3297723652979896
514,514,-0.4060239668756489,-0.4,1,297.0,981.0,1.0,172.0,1,0.2886249337453451
515,515,0.9219573290791878,0.9,0,334.0,511.0,0.0,135.0,1,0.2327165529426112
516,516,-0.8838941718112527,-0.9,1,491.0,894.0,1.0,55.0,1,0.3963151297728926
517,517,-0.6679649897260185,-0.7,1,445.0,892.0,1.0,-917.0,1,0.3792732206190522
518,518,-0.24386926117937846,-0.2,1,378.0,668.0,1.0,344.0,1,0.21563101239241922
519,519,-0.68264969548426,-0.7,1,485.0,596.0,0.0,-461.0,0,0.45370013707295737
520,520,0.8453488312187478,0.8,0,458.0,641.0,0.0,131.0,1,0.3327236950736333
521,521,-0.7525838558782065,-0.8,1,308.0,879.0,1.0,323.0,1,0.20661401008616626
522,522,-0.1424975958688115,-0.1,1,274.0,741.0,1.0,165.0,1,0.27413020666398863
523,523,-0.9764982684402692,-1.0,1,368.0,586.0,1.0,196.0,1,0.3076225916084105
524,524,-0.6966476175167922,-0.7,1,398.0,688.0,1.0,134.0,1,0.43273146071858387
525,525,0.49421311765184006,0.5,0,255.0,597.0,0.0,138.0,1,0.37584098331669435
526,526,-0.9740049980914423,-1.0,1,352.0,646.0,1.0,82.0,1,0.3707057283147468
527,527,-0.9907198064361327,-1.0,1,262.0,636.0,1.0,32.0,1,0.34404489926778825
528,528,0.10425474840799365,0.1,0,265.0,788.0,1.0,-483.0,0,0.3573356789703991
529,529,-0.12963642571623168,-0.1,1,459.0,689.0,1.0,692.0,1,0.23990681238851158
530,530,-0.8773099599214875,-0.9,1,345.0,997.0,1.0,258.0,1,0.38488215902440814
531,531,-0.390902500711521,-0.4,1,298.0,527.0,1.0,105.0,1,0.31541319166581505
532,532,-0.8374176689028299,-0.8,1,371.0,754.0,1.0,95.0,1,0.38991810883927525
533,533,0.635096144546818,0.6,0,292.0,608.0,1.0,-570.0,0,0.46108391090155465
534,534,-0.9366095868421829,-0.9,1,417.0,723.0,1.0,190.0,1,0.21763592221577055
535,535,-0.1632167981530619,-0.2,1,280.0,704.0,1.0,506.0,1,0.23471149746670802
536,536,-0.11284603544305605,-0.1,1,337.0,940.0,1.0,263.0,1,0.32442570292344697
537,537,-0.5006054591903608,-0.5,1,412.0,646.0,1.0,322.0,1,0.26199633055580707
538,538,-0.11250496966464896,-0.1,1,432.0,767.0,1.0,1261.0,1,0.400899666612704
539,539,0.7533025510861806,0.8,0,397.0,921.0,0.0,282.0,1,0.3342453620139808
540,540,-0.5404094247660907,-0.5,1,426.0,955.0,1.0,189.0,1,0.219914697513667
541,541,-0.39889840828049405,-0.4,1,489.0,853.0,0.0,68.0,0,0.32367265690597385
542,542,-0.2736397746023951,-0.3,1,403.0,506.0,1.0,121.0,1,0.4687214004402867
543,543,0.3968706133582185,0.4,0,497.0,544.0,1.0,-741.0,0,0.49979336127968077
544,544,0.6000113537593326,0.6,0,454.0,575.0,0.0,111.0,1,0.38597408864848326
545,545,-0.2660799726435419,-0.3,1,315.0,995.0,1.0,350.0,1,0.24332557262119053
546,546,0.8565220898858312,0.9,0,490.0,942.0,1.0,-1062.0,0,0.48606322898627324
547,547,-0.563979334177344,-0.6,1,355.0,837.0,1.0,138.0,1,0.3286484160837895
548,548,-0.48947634462517886,-0.5,1,415.0,888.0,1.0,177.0,1,0.31688592665925724
549,549,0.2544556558886373,0.3,0,350.0,990.0,0.0,1040.0,1,0.3337771838923053
550,550,0.3826915506064308,0.4,0,464.0,523.0,1.0,-467.0,0,0.49873479493863476
551,551,-0.35083553674025025,-0.4,1,443.0,805.0,1.0,382.0,1,0.30113412170530435
552,552,-0.9775138788687585,-1.0,1,368.0,667.0,1.0,-435.0,1,0.3976226357088717
553,553,-0.026298686974403074,-0.0,1,426.0,785.0,1.0,-841.0,1,0.43864233264912467
554,554,-0.23879222103021802,-0.2,1,472.0,854.0,1.0,244.0,1,0.35106863829166945
555,555,-0.4507780629779463,-0.5,1,303.0,559.0,1.0,-182.0,1,0.44614650709871584
556,556,0.5332664579152779,0.5,0,405.0,655.0,1.0,-200.0,0,0.4435684343183437
557,557,-0.94544281969326,-0.9,1,339.0,734.0,1.0,107.0,1,0.23294185260996553
558,558,0.3456946713964968,0.3,0,381.0,770.0,0.0,449.0,1,0.43701386690541455
559,559,-0.811226168896912,-0.8,1,301.0,767.0,1.0,202.0,1,0.3072709185884979
560,560,0.6818288852693404,0.7,0,434.0,581.0,0.0,335.0,1,0.3031436410433648
561,561,-0.02667548858155544,-0.0,1,467.0,663.0,1.0,-430.0,1,0.47796829025492
562,562,-0.34301688495502636,-0.3,1,493.0,594.0,1.0,213.0,1,0.26026624538881404
563,563,-0.46172971285954745,-0.5,1,408.0,952.0,1.0,420.0,1,0.34476491104750445
564,564,0.13860590260584638,0.1,0,369.0,807.0,0.0,174.0,1,0.280168506574224
565,565,0.1107757467351016,0.1,0,487.0,716.0,1.0,-453.0,0,0.39342747413211876
566,566,-0.6095284938401169,-0.6,1,276.0,634.0,1.0,320.0,1,0.3690344225650683
567,567,0.48157786498970534,0.5,0,290.0,967.0,0.0,223.0,1,0.29387877731456374
568,568,0.6072996100423567,0.6,0,373.0,594.0,1.0,-97.0,0,0.35104199811025505
569,569,0.476266906249722,0.5,0,475.0,672.0,0.0,913.0,1,0.4711635533328848
570,570,0.8504566066631694,0.9,0,390.0,800.0,1.0,-810.0,0,0.48177755954263146
571,571,-0.7950769204016412,-0.8,1,277.0,761.0,1.0,182.0,1,0.3468248707757181
572,572,-0.0009561203977594968,-0.0,1,407.0,642.0,1.0,461.0,1,0.28923244007256166
573,573,0.6458839493669541,0.6,0,489.0,662.0,0.0,179.0,1,0.359881494744155
574,574,0.004293781173700939,0.0,0,405.0,794.0,1.0,1221.0,0,0.20456296474221644
575,575,0.8686571957739744,0.9,0,257.0,599.0,0.0,184.0,1,0.3304127149825981
576,576,0.1981694419561575,0.2,0,407.0,739.0,1.0,44.0,0,0.38100211688827557
577,577,0.5891833873511567,0.6,0,255.0,813.0,1.0,-688.0,0,0.3635811586983571
578,578,0.06224206673425625,0.1,0,465.0,701.0,1.0,-346.0,0,0.4872621538051347
579,579,0.06436679524761191,0.1,0,321.0,578.0,0.0,831.0,1,0.40614486556809004
580,580,0.7893084769717131,0.8,0,400.0,707.0,0.0,103.0,1,0.43827677510056545
581,581,-0.9341635915685798,-0.9,1,308.0,836.0,1.0,136.0,1,0.3393872029210515
582,582,-0.7582670258479447,-0.8,1,339.0,902.0,1.0,-561.0,1,0.4175007240930777
583,583,-0.29759410085140203,-0.3,1,422.0,530.0,1.0,328.0,1,0.4197077325804216
584,584,-0.05776344016254065,-0.1,1,427.0,670.0,1.0,253.0,1,0.34908522034031864
585,585,-0.9786635135211554,-1.0,1,336.0,685.0,1.0,109.0,1,0.2917412392872033
586,586,-0.6991266201323352,-0.7,1,346.0,869.0,1.0,165.0,1,0.3714695207369171
587,587,-0.9702750678472616,-1.0,1,433.0,731.0,1.0,166.0,1,0.4141681059330989
588,588,0.4243888555780122,0.4,0,309.0,506.0,0.0,425.0,1,0.23729683012745031
589,589,0.4502462008973289,0.5,0,358.0,675.0,0.0,267.0,1,0.2313989671345564
590,590,0.7249342110868318,0.7,0,340.0,999.0,0.0,311.0,1,0.2996011232926605
591,591,0.938692613179847,0.9,0,369.0,503.0,0.0,208.0,1,0.35312327116746006
592,592,0.7503066306114721,0.8,0,340.0,816.0,0.0,64.0,1,0.23634714826329836
593,593,0.9744946810952342,1.0,0,469.0,961.0,0.0,250.0,1,0.26322553205560717
594,594,0.19969257359069958,0.2,0,344.0,689.0,0.0,227.0,1,0.2275257550769749
595,595,0.5175111977563469,0.5,0,374.0,821.0,0.0,545.0,1,0.4416921829775614
596,596,-0.862669980051997,-0.9,1,291.0,956.0,1.0,-187.0,1,0.48798215494724156
597,597,0.5672715273275639,0.6,0,295.0,564.0,0.0,241.0,1,0.3842609054369469
598,598,0.2502616907631934,0.3,0,495.0,943.0,0.0,212.0,1,0.3185667449793412
599,599,0.6898280437959026,0.7,0,268.0,601.0,0.0,71.0,1,0.4643138472533312
600,600,0.45803484391149585,0.5,0,294.0,874.0,1.0,-958.0,0,0.35217563691456655
601,601,0.21735509107794226,0.2,0,436.0,923.0,0.0,311.0,1,0.3601372916833123
602,602,0.07606373342016459,0.1,0,486.0,834.0,0.0,3680.0,1,0.20008031430552592
603,603,0.8970563499745594,0.9,0,455.0,966.0,0.0,119.0,1,0.29247163887048533
604,604,-0.6589013039849554,-0.7,1,431.0,888.0,1.0,171.0,1,0.4347587615754842
605,605,-0.5312581641748118,-0.5,1,358.0,906.0,1.0,-864.0,1,0.49785248035718194
606,606,-0.9641603951728386,-1.0,1,353.0,868.0,1.0,139.0,1,0.32388782884577394
607,607,0.4992730063129678,0.5,0,385.0,692.0,0.0,603.0,1,0.3798598059065169
608,608,-0.5140349042567838,-0.5,1,402.0,700.0,1.0,148.0,1,0.2737727188530691
609,609,-0.9945743342245215,-1.0,1,405.0,500.0,1.0,255.0,1,0.35082265290418146
610,610,-0.9302584682344011,-0.9,1,466.0,854.0,0.0,-460.0,0,0.4785438812710209
611,611,0.05778403564691903,0.1,0,322.0,780.0,1.0,1638.0,0,0.29695558109320574
612,612,0.5597977343338905,0.6,0,333.0,785.0,0.0,272.0,1,0.2103385541364669
613,613,-0.09718355696545866,-0.1,1,265.0,878.0,1.0,667.0,1,0.2307950940780255
614,614,0.19467751099037423,0.2,0,424.0,554.0,1.0,-98.0,0,0.48172472240721553
615,615,-0.9911439789700309,-1.0,1,382.0,536.0,1.0,142.0,1,0.28816241961337474
616,616,-0.2881510659900557,-0.3,1,343.0,712.0,1.0,305.0,1,0.25556476104741854
617,617,-0.38110740960124345,-0.4,1,275.0,729.0,0.0,-544.0,0,0.3877668934121604
618,618,0.2357702744292378,0.2,0,317.0,559.0,0.0,834.0,1,0.2519473790774442
619,619,0.5062086930721321,0.5,0,402.0,842.0,0.0,426.0,1,0.28214397059649676
620,620,0.9995015217958674,1.0,0,302.0,630.0,0.0,208.0,1,0.46078250530178655
621,621,0.3799125827434289,0.4,0,465.0,646.0,0.0,279.0,1,0.41987175432874035
622,622,0.9997369167957495,1.0,0,399.0,626.0,0.0,85.0,1,0.3050204726032941
623,623,0.9681726607052725,1.0,0,423.0,892.0,0.0,125.0,1,0.22611257380760313
624,624,-0.05125442370678779,-0.1,1,377.0,748.0,1.0,125.0,1,0.36348777871412463
625,625,-0.678238080685279,-0.7,1,494.0,978.0,1.0,288.0,1,0.22043629554892266
626,626,0.03528112983360776,0.0,0,362.0,562.0,1.0,-174.0,0,0.38761943168884616
627,627,-0.4048770286150465,-0.4,1,376.0,673.0,1.0,151.0,1,0.20397997614498548
628,628,-0.30445147868661504,-0.3,1,289.0,648.0,1.0,-427.0,1,0.43329814003585554
629,629,-0.13957064315470258,-0.1,1,462.0,982.0,1.0,-414.0,1,0.43854588199666306
630,630,-0.6325947992224621,-0.6,1,352.0,758.0,1.0,280.0,1,0.26188375575465517
631,631,-0.24508563143309048,-0.2,1,311.0,678.0,1.0,441.0,1,0.3160460997293092
632,632,0.20534040493668448,0.2,0,443.0,560.0,0.0,217.0,1,0.277002658077178
633,633,0.13300310549309047,0.1,0,296.0,828.0,1.0,876.0,0,0.25197128745196984
634,634,-0.36181270418775036,-0.4,1,269.0,559.0,1.0,392.0,1,0.40783634402316515
635,635,0.8938173320518241,0.9,0,455.0,864.0,0.0,251.0,1,0.407005498338608
636,636,-0.5356390472794947,-0.5,1,253.0,676.0,1.0,321.0,1,0.23378790482712336
637,637,0.6111976419863647,0.6,0,436.0,785.0,0.0,259.0,1,0.2795691404338499
638,638,0.5368966768800012,0.5,0,285.0,833.0,1.0,-448.0,0,0.47013106983025116
639,639,-0.7056321321682375,-0.7,1,494.0,898.0,1.0,278.0,1,0.2314101547114404
640,640,0.39775173434889144,0.4,0,426.0,852.0,0.0,462.0,1,0.29685154383599044
641,641,0.3933529745336508,0.4,0,372.0,860.0,1.0,-732.0,0,0.3993531786883724
642,642,0.4931894168800044,0.5,0,257.0,545.0,0.0,428.0,1,0.3575557023108846
643,643,0.19875851594414828,0.2,0,328.0,825.0,0.0,427.0,1,0.23962898133208665
644,644,0.43600414394742204,0.4,0,308.0,501.0,0.0,511.0,1,0.4294734767808158
645,645,0.7626345113174005,0.8,0,450.0,862.0,0.0,228.0,1,0.2399037306117674
646,646,0.47069250969281806,0.5,0,359.0,669.0,0.0,182.0,1,0.20982371317024134
647,647,0.5175036110447531,0.5,0,377.0,995.0,0.0,308.0,1,0.3464684617043907
648,648,0.15869506180900173,0.2,0,498.0,755.0,0.0,847.0,1,0.3626542976940129
649,649,0.5811947847547159,0.6,0,313.0,997.0,0.0,220.0,1,0.20410969225469724
650,650,0.8329502001974058,0.8,0,366.0,511.0,0.0,153.0,1,0.3306875878484086
651,651,-0.9551991339923633,-1.0,1,479.0,715.0,1.0,66.0,1,0.35103723486927463
652,652,-0.7556302449233576,-0.8,1,261.0,588.0,1.0,111.0,1,0.30051465027656993
653,653,-0.7163934534496246,-0.7,1,278.0,739.0,1.0,213.0,1,0.27607357970614776
654,654,-0.5249978721743696,-0.5,1,360.0,930.0,1.0,110.0,1,0.4211148799053552
655,655,-0.4883361041083776,-0.5,1,387.0,997.0,1.0,236.0,1,0.2516907297795012
656,656,0.7635494312269981,0.8,0,454.0,886.0,0.0,170.0,1,0.23687471326491538
657,657,0.17394552864641155,0.2,0,472.0,556.0,0.0,162.0,1,0.36966763168481453
658,658,-0.09773770196581899,-0.1,1,358.0,779.0,1.0,163.0,1,0.39751120616861046
659,659,-0.7202700536431506,-0.7,1,396.0,997.0,0.0,-533.0,0,0.41608889107974445
660,660,0.5737350994285884,0.6,0,298.0,682.0,1.0,-450.0,0,0.4983909147692827
661,661,0.5655365155559713,0.6,0,488.0,977.0,1.0,-145.0,0,0.4384609502522193
662,662,0.4843571191667624,0.5,0,351.0,851.0,0.0,298.0,1,0.4319531904472143
663,663,0.2488821643258503,0.2,0,283.0,833.0,0.0,-596.0,1,0.4354122752136397
664,664,0.565437529450503,0.6,0,258.0,509.0,0.0,623.0,1,0.23364511329614107
665,665,-0.1237038094726115,-0.1,1,297.0,841.0,1.0,92.0,1,0.23750341286114704
666,666,-0.06143395206663205,-0.1,1,283.0,865.0,1.0,182.0,1,0.4045969390047768
667,667,-0.8234521101413543,-0.8,1,340.0,805.0,1.0,-785.0,1,0.479941461273688
668,668,0.16135110794663143,0.2,0,404.0,911.0,0.0,865.0,1,0.33016393767562313
669,669,-0.6632136162714306,-0.7,1,423.0,594.0,1.0,143.0,1,0.37777424044585156
670,670,0.38115938114180103,0.4,0,480.0,718.0,0.0,-858.0,1,0.39282067108380514
671,671,0.6052944996030876,0.6,0,366.0,788.0,0.0,286.0,1,0.295640813863363
672,672,-0.5236372945006671,-0.5,1,297.0,669.0,1.0,454.0,1,0.3620203517871606
673,673,0.6151525559800948,0.6,0,412.0,520.0,0.0,208.0,1,0.314275853731699
674,674,0.24595998564952315,0.2,0,416.0,898.0,1.0,226.0,0,0.2143049844267212
675,675,-0.2009076878397511,-0.2,1,257.0,743.0,1.0,-640.0,1,0.490976525533713
676,676,0.6379801654987196,0.6,0,359.0,540.0,0.0,91.0,1,0.3034149997749808
677,677,0.30852112802028997,0.3,0,498.0,564.0,1.0,-662.0,0,0.4473445766065328
678,678,-0.036947131786980725,-0.0,1,402.0,800.0,1.0,708.0,1,0.4163786957808433
679,679,0.9779758115721082,1.0,0,250.0,758.0,0.0,392.0,1,0.3864583139860506
680,680,-0.4332707776826239,-0.4,1,253.0,589.0,1.0,128.0,1,0.4290788148463913
681,681,0.4521692687968861,0.5,0,421.0,750.0,0.0,469.0,1,0.20857064784517
682,682,-0.40974826543681675,-0.4,1,280.0,897.0,1.0,323.0,1,0.38673056322622856
683,683,-0.9424325486892247,-0.9,1,490.0,945.0,1.0,-1025.0,1,0.37602828833108315
684,684,-0.056728213387708726,-0.1,1,486.0,928.0,1.0,-44.0,1,0.4172501932230044
685,685,-0.9203871583400727,-0.9,1,411.0,637.0,1.0,222.0,1,0.2409936509387189
686,686,0.1524307637461506,0.2,0,349.0,774.0,1.0,487.0,0,0.21026176838914806
687,687,-0.6094851248552298,-0.6,1,402.0,633.0,0.0,-35.0,0,0.4129670997339586
688,688,0.007946656294942844,0.0,0,423.0,892.0,1.0,-275.0,0,0.4601332155464868
689,689,0.989680395283538,1.0,0,472.0,656.0,0.0,122.0,1,0.21810354221661093
690,690,-0.06364445555218601,-0.1,1,363.0,753.0,1.0,104.0,1,0.39453731670890524
691,691,0.28058121927097934,0.3,0,475.0,692.0,1.0,153.0,0,0.39750622462982454
692,692,0.7867944944743321,0.8,0,294.0,632.0,0.0,214.0,1,0.255227635996969
693,693,-0.8283252989699266,-0.8,1,279.0,843.0,1.0,78.0,1,0.26466209392685414
694,694,-0.6222866037373798,-0.6,1,416.0,614.0,1.0,130.0,1,0.4540023600056414
695,695,-0.39876939043766746,-0.4,1,316.0,883.0,1.0,181.0,1,0.21515370330395628
696,696,0.9438914459612553,0.9,0,371.0,658.0,0.0,151.0,1,0.2994952877549548
697,697,-0.934135036242882,-0.9,1,378.0,566.0,1.0,116.0,1,0.33619524416983615
698,698,-0.24926111806902274,-0.2,1,447.0,686.0,1.0,517.0,1,0.4484571338670484
699,699,-0.6408027776256575,-0.6,1,315.0,664.0,1.0,161.0,1,0.25462305951583036
700,700,0.9856182232959594,1.0,0,346.0,926.0,0.0,228.0,1,0.26099149475376093
701,701,-0.3658252964395585,-0.4,1,258.0,924.0,1.0,408.0,1,0.20319859212137797
702,702,-0.7928205149572793,-0.8,1,474.0,608.0,1.0,258.0,1,0.3427066518926992
703,703,-0.4340505518703097,-0.4,1,455.0,730.0,1.0,35.0,1,0.47851737188099946
704,704,0.7973936936272186,0.8,0,365.0,513.0,0.0,722.0,1,0.3684000482652643
705,705,-0.04037624288966746,-0.0,1,491.0,878.0,1.0,-359.0,1,0.49444557238956693
706,706,-0.5829297849533481,-0.6,1,387.0,645.0,1.0,178.0,1,0.2116114376157942
707,707,0.4572047756600677,0.5,0,400.0,598.0,0.0,892.0,1,0.20313851346947628
708,708,-0.7980945618906947,-0.8,1,328.0,880.0,1.0,-838.0,1,0.39888183257540244
709,709,0.5982131132690021,0.6,0,442.0,604.0,1.0,-316.0,0,0.3193317244685318
710,710,-0.8632437213419437,-0.9,1,294.0,958.0,1.0,-602.0,1,0.3980438710010752
711,711,0.45745326590253477,0.5,0,405.0,850.0,1.0,-495.0,0,0.4551270439045337
712,712,-0.9316088664321329,-0.9,1,339.0,891.0,1.0,100.0,1,0.20414996132656027
713,713,0.9012294028780241,0.9,0,279.0,891.0,0.0,440.0,1,0.4971293114621222
714,714,-0.179851848447367,-0.2,1,393.0,862.0,1.0,275.0,1,0.20638276275164966
715,715,-0.6340095670740165,-0.6,1,406.0,751.0,1.0,193.0,1,0.31535265440411053
716,716,-0.6805604362374258,-0.7,1,312.0,830.0,1.0,128.0,1,0.39554692167870625
717,717,-0.9917299469679064,-1.0,1,402.0,979.0,1.0,179.0,1,0.484011091578696
718,718,-0.8089193743526644,-0.8,1,471.0,602.0,1.0,127.0,1,0.35500154017956603
719,719,-0.9876140303044016,-1.0,1,318.0,763.0,1.0,99.0,1,0.33765539265835554
720,720,0.6927233396768997,0.7,0,300.0,663.0,0.0,247.0,1,0.3154049978937305
721,721,-0.46252747593760835,-0.5,1,353.0,553.0,1.0,224.0,1,0.42542927297560695
722,722,-0.46615881724321007,-0.5,1,292.0,738.0,1.0,-440.0,1,0.4530813902998295
723,723,0.07777178747716773,0.1,0,390.0,752.0,1.0,1368.0,0,0.30218825179393555
724,724,0.6405232480487448,0.6,0,253.0,723.0,0.0,344.0,1,0.4899835950962717
725,725,-0.24114871124424853,-0.2,1,361.0,919.0,1.0,370.0,1,0.3096625876678876
726,726,-0.5077234760581533,-0.5,1,388.0,668.0,1.0,-416.0,1,0.38781143588729283
727,727,0.7213356770440118,0.7,0,307.0,922.0,0.0,451.0,1,0.4249161270734819
728,728,-0.8515112725196889,-0.9,1,253.0,946.0,1.0,181.0,1,0.2177669518540667
729,729,0.8643597494725002,0.9,0,301.0,617.0,0.0,192.0,1,0.4626919712427723
730,730,0.1856663692402265,0.2,0,415.0,776.0,1.0,-801.0,0,0.4255791492359751
731,731,0.2619689849809914,0.3,0,334.0,547.0,0.0,959.0,1,0.3651925566900148
732,732,0.5715536620091921,0.6,0,352.0,733.0,0.0,265.0,1,0.2592423435792303
733,733,0.36693880533447154,0.4,0,491.0,795.0,1.0,-376.0,0,0.36213837060340637
734,734,0.19899160431040075,0.2,0,253.0,825.0,0.0,982.0,1,0.38399158799742084
735,735,0.6959542418650775,0.7,0,485.0,801.0,0.0,244.0,1,0.2236626454046755
736,736,0.496697515977518,0.5,0,408.0,506.0,0.0,716.0,1,0.4467381730790369
737,737,-0.6861466629676907,-0.7,1,306.0,674.0,1.0,70.0,1,0.3584116075085139
738,738,-0.5505043785095782,-0.6,1,469.0,767.0,1.0,614.0,1,0.21247811650298515
739,739,0.0193393508168187,0.0,0,362.0,580.0,1.0,378.0,0,0.39200340556676294
740,740,-0.5557929617316908,-0.6,1,420.0,777.0,1.0,153.0,1,0.27612146231193907
741,741,0.3686433767220678,0.4,0,397.0,663.0,0.0,250.0,1,0.2589334243688486
742,742,-0.7160210782871319,-0.7,1,311.0,656.0,1.0,133.0,1,0.2355423692427462
743,743,-0.5336649688807069,-0.5,1,471.0,635.0,1.0,-776.0,1,0.45610228295547833
744,744,-0.5756363606104016,-0.6,1,347.0,875.0,1.0,-1042.0,1,0.39938805842794417
745,745,0.29984386577546096,0.3,0,269.0,979.0,0.0,422.0,1,0.34213902029218446
746,746,0.39561317618572933,0.4,0,326.0,605.0,1.0,-641.0,0,0.4793988346337164
747,747,0.4811131149170558,0.5,0,257.0,545.0,1.0,228.0,0,0.2057527126334177
748,748,0.1755635214233362,0.2,0,328.0,865.0,0.0,-153.0,1,0.35772743588008316
749,749,-0.33109600460613775,-0.3,1,297.0,811.0,1.0,-268.0,1,0.4832016001403361
750,750,0.2638555891042582,0.3,0,452.0,991.0,1.0,-1143.0,0,0.4681004206420585
751,751,0.20659779889044083,0.2,0,339.0,983.0,0.0,1848.0,1,0.20521112065401895
752,752,-0.13103337229634282,-0.1,1,308.0,918.0,1.0,494.0,1,0.33293180552922774
753,753,0.7588090956888205,0.8,0,370.0,951.0,1.0,-331.0,0,0.39051486369132316
754,754,-0.061461192004601095,-0.1,1,453.0,909.0,1.0,2888.0,1,0.3842674879182356
755,755,-0.8748491112519075,-0.9,1,404.0,710.0,1.0,216.0,1,0.2906080556681387
756,756,-0.9763495586982016,-1.0,1,402.0,584.0,1.0,264.0,1,0.24693979825644236
757,757,-0.13107540154531638,-0.1,1,278.0,559.0,1.0,1173.0,1,0.34937311773174007
758,758,0.9890968792556256,1.0,0,427.0,953.0,0.0,-950.0,1,0.4136655561700153
759,759,-0.34414770506739045,-0.3,1,334.0,625.0,1.0,441.0,1,0.3775530094531462
760,760,-0.13201185343950583,-0.1,1,357.0,588.0,1.0,175.0,1,0.25968273452595303
761,761,0.7317603066923699,0.7,0,303.0,867.0,1.0,-230.0,0,0.4357200099653437
762,762,0.8792905584301198,0.9,0,453.0,702.0,0.0,195.0,1,0.2040038209206565
763,763,-0.762177474454399,-0.8,1,445.0,624.0,1.0,11.0,1,0.47859310010633166
764,764,-0.49800778788735345,-0.5,1,424.0,801.0,1.0,125.0,1,0.3628725067615291
765,765,-0.8712834253326152,-0.9,1,397.0,919.0,0.0,-366.0,0,0.4990988028983084
766,766,0.8554473814341934,0.9,0,427.0,500.0,1.0,23.0,0,0.4152921247829145
767,767,0.9219256689825575,0.9,0,387.0,696.0,0.0,127.0,1,0.33006433131025525
768,768,0.7407759195560901,0.7,0,344.0,948.0,0.0,278.0,1,0.39187660760049536
769,769,-0.09692683785163592,-0.1,1,483.0,841.0,1.0,-324.0,1,0.4188877695111762
770,770,0.8735059909091119,0.9,0,291.0,921.0,0.0,158.0,1,0.3135002431087916
771,771,0.8114326238467737,0.8,0,360.0,771.0,0.0,159.0,1,0.21785662050943705
772,772,-0.0933894255651797,-0.1,1,321.0,564.0,1.0,915.0,1,0.4742434737952496
773,773,0.539070316804108,0.5,0,456.0,777.0,0.0,147.0,1,0.29139346097752383
774,774,-0.18328954294572242,-0.2,1,317.0,690.0,1.0,-557.0,1,0.41716975483055785
775,775,0.8140265152207165,0.8,0,467.0,810.0,1.0,-437.0,0,0.44746629311442965
776,776,0.22059233718948512,0.2,0,309.0,851.0,0.0,620.0,1,0.3548666920963325
777,777,0.19559442580390263,0.2,0,495.0,848.0,1.0,-1093.0,0,0.48471654675334613
778,778,0.6953644830791297,0.7,0,279.0,891.0,0.0,110.0,1,0.20384961286970824
779,779,-0.5650112198162733,-0.6,1,301.0,901.0,1.0,198.0,1,0.37460633299188695
780,780,0.6297649115656332,0.6,0,383.0,932.0,0.0,225.0,1,0.2306168774260665
781,781,-0.8037840818852031,-0.8,1,357.0,776.0,1.0,-953.0,1,0.4599256223183809
782,782,-0.4622020456005831,-0.5,1,380.0,571.0,1.0,309.0,1,0.4753003154238642
783,783,0.0606929502839757,0.1,0,379.0,546.0,1.0,215.0,0,0.35319235157674456
784,784,-0.8444279044034844,-0.8,1,498.0,734.0,1.0,-152.0,1,0.33223635044185773
785,785,-0.9421369501938068,-0.9,1,430.0,665.0,1.0,-255.0,1,0.4199648083730944
786,786,0.7768183266728235,0.8,0,311.0,917.0,0.0,152.0,1,0.36873740743904126
787,787,-0.8418192934917457,-0.8,1,298.0,859.0,1.0,283.0,1,0.2205772214187973
788,788,-0.5546731238269658,-0.6,1,474.0,576.0,1.0,20.0,1,0.37743236535860036
789,789,-0.425483571741889,-0.4,1,352.0,772.0,1.0,246.0,1,0.30663044770414044
790,790,-0.9415855305552931,-0.9,1,456.0,767.0,1.0,157.0,1,0.22533728285532167
791,791,-0.33570981071319506,-0.3,1,324.0,640.0,1.0,616.0,1,0.24542868176981356
792,792,-0.7807131461944938,-0.8,1,276.0,511.0,1.0,13.0,1,0.43188747984900105
793,793,-0.7219214229390032,-0.7,1,345.0,855.0,1.0,160.0,1,0.4273292519516406
794,794,-0.08753039462106482,-0.1,1,430.0,683.0,1.0,-583.0,1,0.4374738542234636
795,795,-0.2671893285843614,-0.3,1,360.0,921.0,1.0,539.0,1,0.21793585521126346
796,796,-0.46028463525663876,-0.5,1,443.0,810.0,1.0,147.0,1,0.32544397815621473
797,797,0.41461309486706566,0.4,0,494.0,895.0,0.0,-1189.0,1,0.49684573519336966
798,798,-0.7059076569210536,-0.7,1,494.0,888.0,1.0,148.0,1,0.29445306725043147
799,799,-0.47669237529529185,-0.5,1,260.0,547.0,1.0,183.0,1,0.21418753229901866
800,800,-0.650531089410098,-0.7,1,350.0,709.0,1.0,31.0,1,0.23848019435459183
801,801,-0.7718523585651491,-0.8,1,440.0,772.0,1.0,88.0,1,0.39549553569733475
802,802,-0.55700873830019,-0.6,1,354.0,559.0,1.0,-233.0,1,0.3635197222991433
803,803,0.8743681402024697,0.9,0,265.0,535.0,0.0,200.0,1,0.4001685782700358
804,804,0.2808377560717823,0.3,0,405.0,709.0,0.0,356.0,1,0.3714303292650748
805,805,0.9551503915681128,1.0,0,330.0,931.0,0.0,89.0,1,0.437528199646771
806,806,-0.2887058175956241,-0.3,1,309.0,985.0,1.0,16.0,1,0.39704569622961083
807,807,-0.08764442773874292,-0.1,1,389.0,845.0,1.0,366.0,1,0.32914669052891116
808,808,0.32681020674186234,0.3,0,314.0,607.0,0.0,609.0,1,0.34922234164806654
809,809,0.9567201054793129,1.0,0,399.0,694.0,0.0,137.0,1,0.24096218136682776
810,810,0.8545816971635483,0.9,0,424.0,689.0,0.0,237.0,1,0.25799933116074175
811,811,0.5062624071347701,0.5,0,319.0,757.0,1.0,-646.0,0,0.4302161881743126
812,812,-0.993013275007848,-1.0,1,269.0,570.0,1.0,231.0,1,0.26697596609306556
813,813,-0.8937407213778286,-0.9,1,362.0,555.0,1.0,113.0,1,0.37114171005298013
814,814,-0.8524655008131008,-0.9,1,398.0,801.0,1.0,-409.0,1,0.4195011430128146
815,815,0.007625370693479239,0.0,0,418.0,553.0,1.0,1919.0,0,0.3215748514269393
816,816,0.5577297491646058,0.6,0,329.0,718.0,0.0,-57.0,1,0.38298673437649144
817,817,-0.4605749641157235,-0.5,1,304.0,848.0,1.0,568.0,1,0.3468512716454748
818,818,0.9085075973862891,0.9,0,454.0,955.0,0.0,191.0,1,0.24449490387215103
819,819,-0.6122701917016729,-0.6,1,441.0,782.0,1.0,257.0,1,0.3166054426491693
820,820,0.8226410685734706,0.8,0,363.0,614.0,0.0,183.0,1,0.37620399905071555
821,821,-0.5818882283628131,-0.6,1,292.0,849.0,1.0,109.0,1,0.42038894483612854
822,822,-0.9252493274215556,-0.9,1,409.0,673.0,1.0,58.0,1,0.31820707251719715
823,823,0.38741571513040096,0.4,0,258.0,669.0,0.0,283.0,1,0.25214279726000904
824,824,-0.24701792247259458,-0.2,1,327.0,963.0,1.0,-770.0,1,0.39659604875735727
825,825,0.318235623965224,0.3,0,344.0,695.0,0.0,2121.0,1,0.2123892578822988
826,826,-0.8509707325166842,-0.9,1,481.0,994.0,1.0,55.0,1,0.35380969100063436
827,827,0.24221681470752987,0.2,0,362.0,747.0,0.0,921.0,1,0.4930168763197622
828,828,-0.9754026193235992,-1.0,1,459.0,977.0,1.0,-1126.0,1,0.461410278309995
829,829,-0.6001286258358753,-0.6,1,499.0,614.0,1.0,387.0,1,0.3580213850670814
830,830,0.06454200749288797,0.1,0,357.0,621.0,1.0,1592.0,0,0.4948983247445411
831,831,0.42557469638283973,0.4,0,454.0,724.0,0.0,132.0,1,0.39844010000200775
832,832,-0.043145047499647315,-0.0,1,284.0,749.0,1.0,-453.0,1,0.36384303550915476
833,833,-0.8556222135421085,-0.9,1,446.0,619.0,1.0,95.0,1,0.4262592844812193
834,834,-0.8273544064496456,-0.8,1,463.0,529.0,1.0,118.0,1,0.45938455309173115
835,835,-0.4361953645959775,-0.4,1,424.0,871.0,0.0,-925.0,0,0.47748450609831106
836,836,0.9706218778091975,1.0,0,495.0,537.0,0.0,178.0,1,0.31551704463614705
837,837,-0.12686413787207673,-0.1,1,283.0,518.0,1.0,99.0,1,0.4108618551929256
838,838,0.3196531691855107,0.3,0,309.0,965.0,1.0,-434.0,0,0.44406507870395096
839,839,-0.506373965584503,-0.5,1,279.0,607.0,1.0,384.0,1,0.2406660006101537
840,840,0.5001343751508962,0.5,0,424.0,516.0,0.0,320.0,1,0.20949711562016582
841,841,0.7498691261240655,0.7,0,342.0,911.0,0.0,117.0,1,0.41423888817118726
842,842,0.8642976482005071,0.9,0,415.0,866.0,0.0,139.0,1,0.21011957127869219
843,843,-0.47881047542628274,-0.5,1,436.0,679.0,1.0,205.0,1,0.34449256937930617
844,844,-0.04302044776271163,-0.0,1,428.0,926.0,1.0,-304.0,1,0.4742664885105986
845,845,0.5500789065060274,0.6,0,347.0,550.0,0.0,283.0,1,0.21701264226902808
846,846,-0.23857165738767772,-0.2,1,498.0,723.0,1.0,169.0,1,0.22730172378558583
847,847,-0.6814504689313068,-0.7,1,259.0,800.0,0.0,-379.0,0,0.4963130441387005
848,848,-0.14893610538583113,-0.1,1,423.0,941.0,1.0,406.0,1,0.28604545609103804
849,849,0.07758121990229694,0.1,0,476.0,631.0,1.0,483.0,0,0.2983523661093717
850,850,-0.9388856898000255,-0.9,1,478.0,640.0,1.0,-578.0,1,0.45374170648063866
851,851,-0.6015068454500381,-0.6,1,370.0,554.0,1.0,-624.0,1,0.41589585878465607
852,852,0.6550077413096795,0.7,0,251.0,543.0,0.0,516.0,1,0.30342586236963576
853,853,-0.9186345812932346,-0.9,1,475.0,514.0,1.0,221.0,1,0.2990989948452058
854,854,-0.12752608558903256,-0.1,1,392.0,526.0,1.0,1122.0,1,0.3080824374601828
855,855,-0.6194033225514084,-0.6,1,417.0,565.0,1.0,238.0,1,0.3595949580609218
856,856,-0.32690162012832147,-0.3,1,443.0,648.0,1.0,279.0,1,0.20719810570526528
857,857,-0.5427172877421951,-0.5,1,274.0,639.0,1.0,217.0,1,0.20386816913203326
858,858,-0.5736102682650275,-0.6,1,499.0,908.0,1.0,23.0,1,0.3697426868356536
859,859,0.7229490863998931,0.7,0,498.0,563.0,1.0,-531.0,0,0.4314539948603334
860,860,-0.8520394861264582,-0.9,1,311.0,941.0,1.0,108.0,1,0.36183151791591983
861,861,0.4350289899403512,0.4,0,291.0,898.0,1.0,-519.0,0,0.4248705031485909
862,862,-0.5786341626770757,-0.6,1,436.0,949.0,1.0,65.0,1,0.4350324177771278
863,863,0.9602990397762448,1.0,0,490.0,751.0,1.0,-911.0,0,0.47740603300269807
864,864,-0.2566165861149281,-0.3,1,378.0,956.0,1.0,-944.0,1,0.417517514824425
865,865,0.3879948894546219,0.4,0,479.0,963.0,0.0,188.0,1,0.22164505312716726
866,866,0.10832604733610363,0.1,0,331.0,772.0,1.0,357.0,0,0.2618470658406559
867,867,-0.4803204409253139,-0.5,1,268.0,926.0,1.0,136.0,1,0.311451881117637
868,868,0.057741999346748285,0.1,0,299.0,695.0,1.0,-84.0,0,0.44054469805196295
869,869,-0.9873425425838174,-1.0,1,286.0,585.0,1.0,199.0,1,0.2650898212484679
870,870,-0.9753523940423241,-1.0,1,260.0,682.0,1.0,48.0,1,0.28272666284588654
871,871,-0.42135976088352245,-0.4,1,312.0,904.0,1.0,184.0,1,0.2580248243858617
872,872,-0.3066782086227662,-0.3,1,315.0,786.0,1.0,39.0,1,0.43436228211041084
873,873,0.4668240678596389,0.5,0,455.0,766.0,1.0,-611.0,0,0.4409650187930296
874,874,-0.8939759579618316,-0.9,1,351.0,750.0,1.0,249.0,1,0.20767292127729303
875,875,-0.7958026738949573,-0.8,1,417.0,616.0,1.0,-383.0,1,0.4645128290484362
876,876,0.16559961095535525,0.2,0,417.0,742.0,1.0,131.0,0,0.260412461328074
877,877,0.3030195442762844,0.3,0,450.0,618.0,0.0,232.0,1,0.2746914571155407
878,878,0.9042737076708272,0.9,0,382.0,809.0,0.0,29.0,1,0.4128514101957803
879,879,-0.7065653879406417,-0.7,1,458.0,562.0,1.0,190.0,1,0.39372093555995447
880,880,-0.14906248830627633,-0.1,1,491.0,578.0,1.0,-289.0,1,0.49589604062570564
881,881,0.8741775489464447,0.9,0,367.0,736.0,0.0,357.0,1,0.2349795276443914
882,882,-0.6282718224039228,-0.6,1,438.0,859.0,1.0,63.0,1,0.3609148535100003
883,883,0.7924160160616989,0.8,0,461.0,573.0,0.0,246.0,1,0.277804036974032
884,884,0.26172829396967345,0.3,0,426.0,811.0,1.0,-757.0,0,0.471068687879627
885,885,-0.09921257421745855,-0.1,1,311.0,703.0,1.0,556.0,1,0.36652986876496596
886,886,-0.780395533198321,-0.8,1,323.0,630.0,1.0,197.0,1,0.33581365941330504
887,887,0.23340601044352938,0.2,0,314.0,832.0,0.0,784.0,1,0.2741855032895925
888,888,-0.014972118688060698,-0.0,1,396.0,970.0,1.0,1564.0,1,0.3507720164482676
889,889,0.11702374864139453,0.1,0,424.0,538.0,1.0,-302.0,0,0.4714749673736469
890,890,-0.7718775059866185,-0.8,1,401.0,587.0,1.0,172.0,1,0.3696595579361967
891,891,0.0034790413264293996,0.0,0,376.0,768.0,1.0,586.0,0,0.24995842564493226
892,892,0.14003789851655646,0.1,0,497.0,615.0,1.0,198.0,0,0.36507699112525094
893,893,-0.7140730816372325,-0.7,1,472.0,504.0,1.0,74.0,1,0.39262247095224423
894,894,0.4983948028222598,0.5,0,376.0,980.0,0.0,534.0,1,0.2206275364002098
895,895,0.8805198088602628,0.9,0,359.0,627.0,0.0,164.0,1,0.3264868391773854
896,896,-0.08444891705203506,-0.1,1,296.0,564.0,1.0,260.0,1,0.4074986924159598
897,897,0.05775454142459102,0.1,0,321.0,942.0,1.0,7.0,0,0.44600716106520577
898,898,0.17066347018727335,0.2,0,320.0,990.0,1.0,-740.0,0,0.48875726330729946
899,899,-0.5343269967207851,-0.5,1,418.0,755.0,1.0,287.0,1,0.3333309932895363
900,900,0.678996352757411,0.7,0,331.0,572.0,0.0,137.0,1,0.49850853782993076
901,901,0.4579174635003904,0.5,0,482.0,810.0,0.0,358.0,1,0.30019696186385875
902,902,-0.6190358954516761,-0.6,1,276.0,963.0,1.0,71.0,1,0.24635675826860898
903,903,0.6270700478741504,0.6,0,409.0,866.0,0.0,225.0,1,0.2280688756974294
904,904,0.7695115067326044,0.8,0,449.0,533.0,0.0,248.0,1,0.2987807736201826
905,905,0.8853249313895757,0.9,0,371.0,910.0,0.0,199.0,1,0.2041715652975528
906,906,-0.5991429693632546,-0.6,1,305.0,909.0,1.0,176.0,1,0.40787331950062433
907,907,-0.34815588489537497,-0.3,1,437.0,522.0,1.0,351.0,1,0.29738261159712953
908,908,0.9353362176347506,0.9,0,420.0,538.0,0.0,72.0,1,0.3676627557074278
909,909,0.4404834473657133,0.4,0,479.0,830.0,0.0,171.0,1,0.280909812717185
910,910,0.6285869269876152,0.6,0,257.0,864.0,0.0,299.0,1,0.24628230838238113
911,911,-0.21414970239613518,-0.2,1,341.0,797.0,1.0,-28.0,1,0.4121991730851957
912,912,0.23102920901120405,0.2,0,279.0,781.0,0.0,310.0,1,0.32070882261741873
913,913,0.3162357517303811,0.3,0,422.0,880.0,0.0,-512.0,1,0.30958010786208084
914,914,0.3185450014786664,0.3,0,407.0,801.0,1.0,-598.0,0,0.3338492230761835
915,915,0.8952056830503423,0.9,0,471.0,861.0,0.0,48.0,1,0.4961824590969886
916,916,0.3296438221436866,0.3,0,384.0,877.0,0.0,439.0,1,0.34084290208452683
917,917,0.39935629218127033,0.4,0,259.0,584.0,0.0,217.0,1,0.3454423517052504
918,918,-0.8916033589642829,-0.9,1,490.0,547.0,1.0,273.0,1,0.23107399496231068
919,919,-0.809814147510004,-0.8,1,386.0,515.0,1.0,149.0,1,0.2180243211973053
920,920,0.777485006023374,0.8,0,498.0,524.0,0.0,268.0,1,0.25210412544088356
921,921,0.09741567729779654,0.1,0,416.0,950.0,0.0,434.0,1,0.42438838955814406
922,922,0.7916399930499478,0.8,0,445.0,984.0,1.0,-369.0,0,0.4176136353125488
923,923,0.4580500205001059,0.5,0,257.0,548.0,0.0,325.0,1,0.3282788219739575
924,924,-0.18930972120336653,-0.2,1,320.0,937.0,1.0,243.0,1,0.35033213284179454
925,925,-0.650489119112085,-0.7,1,253.0,686.0,1.0,101.0,1,0.36820144664026955
926,926,0.33254390249902466,0.3,0,441.0,691.0,0.0,578.0,1,0.2202029815768682
927,927,0.27501327551617494,0.3,0,293.0,885.0,0.0,852.0,1,0.3016881932529075
928,928,-0.7897098764718091,-0.8,1,459.0,924.0,1.0,187.0,1,0.3013251708601575
929,929,-0.7900919143118117,-0.8,1,285.0,617.0,1.0,68.0,1,0.44307035589878346
930,930,-0.9237647341812896,-0.9,1,382.0,878.0,1.0,-990.0,1,0.3826923586391422
931,931,0.3770887831869263,0.4,0,480.0,517.0,0.0,403.0,1,0.3389615457164888
932,932,-0.7798180273183806,-0.8,1,313.0,841.0,1.0,-584.0,1,0.4144036028185697
933,933,0.7186524312938471,0.7,0,283.0,604.0,1.0,-387.0,0,0.4707607471315317
934,934,-0.9823393418316553,-1.0,1,401.0,876.0,1.0,183.0,1,0.3375997502133673
935,935,0.2237402260960033,0.2,0,258.0,661.0,0.0,781.0,1,0.28485766612177665
936,936,0.7285689628386736,0.7,0,430.0,672.0,0.0,138.0,1,0.30609077990330014
937,937,0.28713229935118445,0.3,0,302.0,823.0,0.0,425.0,1,0.40393801865522505
938,938,0.2947234722451475,0.3,0,360.0,670.0,0.0,840.0,1,0.242043059868906
939,939,-0.418393421163183,-0.4,1,258.0,760.0,1.0,362.0,1,0.30007668686616135
940,940,0.6976126685135235,0.7,0,403.0,594.0,0.0,183.0,1,0.2484581620782091
941,941,0.7604810138838922,0.8,0,379.0,878.0,0.0,-77.0,1,0.44406518255259814
942,942,0.8188179809080032,0.8,0,498.0,835.0,1.0,-343.0,0,0.46909041163796883
943,943,0.5578016677066076,0.6,0,286.0,967.0,0.0,277.0,1,0.48675174795743303
944,944,0.6167226578164366,0.6,0,290.0,771.0,0.0,429.0,1,0.27720629324560575
945,945,0.7854935689917322,0.8,0,328.0,940.0,0.0,122.0,1,0.474819233336815
946,946,0.44860884019449143,0.4,0,446.0,574.0,0.0,210.0,1,0.49994465043739117
947,947,0.40166078591011933,0.4,0,386.0,671.0,0.0,183.0,1,0.3413024909737815
948,948,0.3779061419011418,0.4,0,258.0,755.0,0.0,197.0,1,0.4267459906093144
949,949,0.3853647857613749,0.4,0,314.0,607.0,1.0,229.0,0,0.3163838868257709
950,950,-0.8478985685907783,-0.8,1,342.0,875.0,1.0,233.0,1,0.3371315431674606
951,951,-0.6446476417408997,-0.6,1,488.0,974.0,1.0,78.0,1,0.33030041597849746
952,952,0.9527244035017393,1.0,0,469.0,800.0,1.0,-429.0,0,0.34693460230088097
953,953,-0.834221454496124,-0.8,1,376.0,660.0,1.0,64.0,1,0.3970038780346773
954,954,-0.4474265213631521,-0.4,1,434.0,560.0,1.0,156.0,1,0.39692931535827725
955,955,-0.802037904573182,-0.8,1,313.0,957.0,1.0,-1010.0,1,0.38950393170174846
956,956,0.9192193787183431,0.9,0,285.0,815.0,0.0,510.0,1,0.21142693324410783
957,957,-0.4134098026014683,-0.4,1,489.0,873.0,1.0,408.0,1,0.2761903301284415
958,958,0.4752608669066507,0.5,0,256.0,628.0,0.0,666.0,1,0.45311554775503243
959,959,0.1275812236945415,0.1,0,372.0,644.0,0.0,1854.0,1,0.2983133764854892
960,960,-0.5907037237992554,-0.6,1,338.0,858.0,1.0,214.0,1,0.2845385392679563
961,961,-0.14070152901506616,-0.1,1,378.0,781.0,1.0,701.0,1,0.2513296886930648
962,962,0.9037930955959668,0.9,0,344.0,744.0,1.0,-708.0,0,0.4924469944393416
963,963,0.1837376361489904,0.2,0,272.0,671.0,0.0,1297.0,1,0.23553698025452172
964,964,-0.5681593602795845,-0.6,1,395.0,626.0,1.0,189.0,1,0.37885243353991127
965,965,0.6875980189155573,0.7,0,315.0,571.0,0.0,374.0,1,0.46245913748095663
966,966,-0.6902012835622242,-0.7,1,260.0,515.0,1.0,205.0,1,0.2589182118437527
967,967,-0.7872929506701576,-0.8,1,409.0,931.0,1.0,300.0,1,0.3414704264682715
968,968,0.31164825111464767,0.3,0,474.0,673.0,0.0,303.0,1,0.31240159268341056
969,969,-0.8307693742572297,-0.8,1,329.0,604.0,1.0,227.0,1,0.3399606628224609
970,970,0.31953571764298117,0.3,0,496.0,839.0,0.0,315.0,1,0.2634119042259642
971,971,0.8979845640842019,0.9,0,371.0,990.0,0.0,249.0,1,0.2069503465728597
972,972,0.11861209605986445,0.1,0,361.0,899.0,0.0,320.0,1,0.44168807309783836
973,973,0.16493194128081057,0.2,0,444.0,864.0,0.0,622.0,1,0.2747544112003564
974,974,-0.5285864160178999,-0.5,1,432.0,811.0,1.0,717.0,1,0.26758951777543827
975,975,-0.5511612253280052,-0.6,1,305.0,960.0,1.0,105.0,1,0.296208942379214
976,976,-0.6425992013321429,-0.6,1,406.0,949.0,1.0,265.0,1,0.27990314878448286
977,977,0.291418201871376,0.3,0,309.0,865.0,0.0,306.0,1,0.3981021020508385
978,978,-0.7571586853255268,-0.8,1,357.0,593.0,1.0,240.0,1,0.3106132202192849
979,979,-0.22694626479007773,-0.2,1,467.0,716.0,1.0,247.0,1,0.29073142119489
980,980,-0.9460059604239659,-0.9,1,410.0,825.0,1.0,105.0,1,0.3283245759699789
981,981,-0.32562860806120564,-0.3,1,414.0,788.0,1.0,208.0,1,0.35706872909672016
982,982,-0.2241245356219015,-0.2,1,410.0,605.0,1.0,275.0,1,0.3116194209976444
983,983,-0.9273135247892512,-0.9,1,406.0,981.0,1.0,-727.0,1,0.4690578828364184
984,984,0.22539937603459426,0.2,0,316.0,883.0,0.0,-559.0,1,0.4736514630480601
985,985,0.03515436966927887,0.0,0,373.0,936.0,0.0,811.0,1,0.24923995586307413
986,986,0.9635134186559937,1.0,0,415.0,774.0,0.0,341.0,1,0.2932519695850827
987,987,0.5113675163505309,0.5,0,351.0,742.0,0.0,227.0,1,0.4213155529493597
988,988,0.05060480238646825,0.1,0,287.0,536.0,0.0,867.0,1,0.29475400802842255
989,989,0.22071077896631808,0.2,0,348.0,859.0,1.0,-157.0,0,0.4623051268117479
990,990,0.03116885410233361,0.0,0,469.0,605.0,1.0,706.0,0,0.3331653057670068
991,991,-0.04629642090304831,-0.0,1,437.0,554.0,1.0,599.0,1,0.23144295776272286
992,992,0.6142411437755475,0.6,0,286.0,856.0,0.0,148.0,1,0.2529452340617677
993,993,0.9167510664062586,0.9,0,325.0,586.0,0.0,139.0,1,0.21353984191982267
994,994,-0.7934208519186914,-0.8,1,359.0,787.0,1.0,74.0,1,0.31886137305103274
995,995,0.6327031059526598,0.6,0,280.0,509.0,0.0,141.0,1,0.44148495592265435
996,996,-0.28609223045549137,-0.3,1,277.0,554.0,1.0,79.0,1,0.4767642355285205
997,997,0.16807415487245025,0.2,0,409.0,619.0,0.0,672.0,1,0.21571282189291105
998,998,-0.09491730034153822,-0.1,1,398.0,892.0,1.0,1400.0,1,0.3387200090444966
999,999,-0.9554215798905277,-1.0,1,470.0,948.0,1.0,-698.0,1,0.35592936517401963
1000,1000,-0.7092117394467683,-0.7,1,271.0,872.0,1.0,117.0,1,0.22755514877874394
1001,1001,0.9346734095699554,0.9,0,499.0,632.0,0.0,139.0,1,0.4960468638629337
1002,1002,-0.8945840134873395,-0.9,1,302.0,879.0,1.0,189.0,1,0.38200260337012537
1003,1003,-0.8218569358997163,-0.8,1,435.0,646.0,1.0,59.0,1,0.3707885041394321
1004,1004,0.48115154736690724,0.5,0,399.0,912.0,0.0,169.0,1,0.34533120602219014
1005,1005,0.4800266512816631,0.5,0,438.0,842.0,0.0,540.0,1,0.22075608729603402
1006,1006,0.21271912162127804,0.2,0,299.0,631.0,0.0,180.0,1,0.4360262609108928
1007,1007,0.956499547073919,1.0,0,272.0,947.0,0.0,161.0,1,0.3395709658259049
1008,1008,0.7919597841816473,0.8,0,402.0,623.0,1.0,-195.0,0,0.49759600581470836
1009,1009,-0.36824553628561874,-0.4,1,298.0,804.0,1.0,478.0,1,0.2843520619560969
1010,1010,-0.8882926123355881,-0.9,1,350.0,899.0,0.0,-499.0,0,0.46325781604360033
1011,1011,-0.38942334804880985,-0.4,1,255.0,529.0,1.0,216.0,1,0.36834642187554933
1012,1012,0.19110208102062876,0.2,0,334.0,975.0,1.0,1611.0,0,0.2963311881152043
1013,1013,-0.7979868155409748,-0.8,1,498.0,513.0,1.0,249.0,1,0.40265393265272914
1014,1014,-0.5368768350865349,-0.5,1,398.0,566.0,1.0,156.0,1,0.44514712081676316
1015,1015,-0.09653835761597884,-0.1,1,412.0,573.0,1.0,435.0,1,0.446267130976131
1016,1016,-0.14397476890373495,-0.1,1,332.0,926.0,1.0,332.0,1,0.2791586810221661
1017,1017,-0.5683758752023327,-0.6,1,251.0,668.0,1.0,161.0,1,0.2641189181170329
1018,1018,-0.04211108419503229,-0.0,1,465.0,926.0,1.0,559.0,1,0.28864795126798215
1019,1019,0.4245711139231336,0.4,0,264.0,861.0,1.0,-525.0,0,0.47041538345634104
1020,1020,0.22522594215456793,0.2,0,281.0,820.0,0.0,149.0,1,0.2693361556995153
1021,1021,0.7682386853097718,0.8,0,272.0,732.0,0.0,256.0,1,0.4295397744865188
1022,1022,0.5446371577443605,0.5,0,253.0,974.0,0.0,173.0,1,0.2295175435909086
1023,1023,-0.774617531053722,-0.8,1,309.0,800.0,1.0,-909.0,1,0.35551328747955613
1024,1024,-0.9946971804291183,-1.0,1,485.0,654.0,1.0,-259.0,1,0.36410758194642784
1025,1025,0.4021646366365754,0.4,0,454.0,936.0,0.0,230.0,1,0.4560341883543058
1026,1026,0.6294011868679934,0.6,0,407.0,909.0,0.0,304.0,1,0.3385348772413693
1027,1027,0.5649385499135977,0.6,0,313.0,761.0,0.0,46.0,1,0.2673609852709905
1028,1028,0.8440973817860395,0.8,0,467.0,516.0,0.0,187.0,1,0.2742563684341973
1029,1029,0.41837832395093355,0.4,0,353.0,790.0,1.0,7.0,0,0.3605015846338988
1030,1030,-0.7782274719505728,-0.8,1,343.0,670.0,1.0,857.0,1,0.21798992620487323
1031,1031,-0.8328177563032904,-0.8,1,389.0,566.0,1.0,85.0,1,0.4496767352173893
1032,1032,0.11873877381013442,0.1,0,409.0,784.0,1.0,-883.0,0,0.4766945766847141
1033,1033,0.8666848025534486,0.9,0,426.0,712.0,1.0,-438.0,0,0.3288033886772387
1034,1034,0.49021857874686803,0.5,0,350.0,793.0,0.0,217.0,1,0.32049688281389027
1035,1035,0.052035101973557873,0.1,0,359.0,670.0,1.0,-829.0,0,0.49353735700456086
1036,1036,0.2604163294053079,0.3,0,413.0,935.0,1.0,-108.0,0,0.4165644757232556
1037,1037,-0.6617089113133798,-0.7,1,344.0,566.0,1.0,-680.0,1,0.3964504234897811
1038,1038,-0.1581199496471346,-0.2,1,402.0,529.0,1.0,309.0,1,0.3373236091093279
1039,1039,-0.5486336786741242,-0.5,1,276.0,970.0,1.0,-766.0,1,0.4348094901330694
1040,1040,0.35370589328179713,0.4,0,308.0,758.0,0.0,414.0,1,0.3477183974866881
1041,1041,-0.2848093925851183,-0.3,1,283.0,767.0,1.0,170.0,1,0.4531313104076688
1042,1042,0.02942721563779327,0.0,0,428.0,506.0,1.0,-24.0,0,0.4612975522309597
1043,1043,-0.8389326594692452,-0.8,1,324.0,847.0,1.0,279.0,1,0.22500761755726154
1044,1044,-0.9965784415198828,-1.0,1,438.0,566.0,1.0,766.0,1,0.23099214116855352
1045,1045,-0.837165500325983,-0.8,1,462.0,554.0,1.0,144.0,1,0.28019340577844
1046,1046,0.4352714318508084,0.4,0,255.0,733.0,0.0,242.0,1,0.2818220103236577
1047,1047,-0.04855761429028327,-0.0,1,349.0,790.0,1.0,351.0,1,0.22669112943320177
1048,1048,-0.2736331187654071,-0.3,1,420.0,556.0,1.0,534.0,1,0.29535194943582993
1049,1049,0.6305433917440642,0.6,0,326.0,674.0,0.0,170.0,1,0.2402645545739913
1050,1050,-0.8719130946909772,-0.9,1,457.0,503.0,1.0,150.0,1,0.3424246908384378
1051,1051,-0.5099599524372902,-0.5,1,485.0,815.0,1.0,300.0,1,0.2975057600658148
1052,1052,0.5015899128338375,0.5,0,318.0,776.0,0.0,206.0,1,0.22693854663671398
1053,1053,-0.8810309234596414,-0.9,1,250.0,635.0,1.0,515.0,1,0.24050671575574856
1054,1054,-0.22808496065378447,-0.2,1,426.0,648.0,1.0,226.0,1,0.2562235327057748
1055,1055,0.4313625414656921,0.4,0,456.0,964.0,0.0,440.0,1,0.32265219126440053
1056,1056,0.9207667071527161,0.9,0,493.0,504.0,0.0,113.0,1,0.34247448510905254
1057,1057,-0.2652188120798167,-0.3,1,305.0,715.0,1.0,210.0,1,0.21773387177486733
1058,1058,0.6387982816848639,0.6,0,302.0,695.0,1.0,-227.0,0,0.490960621861876
1059,1059,-0.12357409236246553,-0.1,1,476.0,830.0,1.0,94.0,1,0.39841436525269774
1060,1060,-0.9539075548535596,-1.0,1,428.0,560.0,1.0,-488.0,1,0.44584768037050715
1061,1061,0.5234235714813045,0.5,0,305.0,940.0,0.0,345.0,1,0.49691960096715826
1062,1062,-0.8100144828157667,-0.8,1,469.0,556.0,1.0,235.0,1,0.4758509851444739
1063,1063,-0.007114536174664954,-0.0,1,406.0,995.0,1.0,669.0,1,0.2589378835619539
1064,1064,0.6104870360670207,0.6,0,319.0,983.0,1.0,-852.0,0,0.48885434329611316
1065,1065,0.9083737823176619,0.9,0,295.0,521.0,0.0,184.0,1,0.45179406474838674
1066,1066,-0.320810178343071,-0.3,1,399.0,783.0,1.0,88.0,1,0.4084703639590549
1067,1067,-0.3873614402107701,-0.4,1,496.0,932.0,1.0,272.0,1,0.30173170955994877
1068,1068,-0.014715897836636405,-0.0,1,492.0,890.0,1.0,-642.0,1,0.3696961189848356
1069,1069,0.97820033778048,1.0,0,442.0,566.0,0.0,132.0,1,0.21280370561215872
1070,1070,-0.6195833032318985,-0.6,1,307.0,944.0,1.0,179.0,1,0.3442985022901415
1071,1071,0.835668715038989,0.8,0,417.0,967.0,0.0,86.0,1,0.31682526945859074
1072,1072,0.4824811174632915,0.5,0,436.0,755.0,0.0,149.0,1,0.3459536389133967
1073,1073,0.13485408472155624,0.1,0,279.0,642.0,1.0,-591.0,0,0.3693731063517652
1074,1074,-0.7414276403536655,-0.7,1,311.0,882.0,1.0,137.0,1,0.2569649605731485
1075,1075,0.6721267414925702,0.7,0,497.0,828.0,0.0,335.0,1,0.41351090113846733
1076,1076,-0.09652929534632149,-0.1,1,392.0,632.0,1.0,416.0,1,0.24942090279498208
1077,1077,-0.9214170296409276,-0.9,1,435.0,648.0,1.0,-703.0,1,0.42759709366088033
1078,1078,0.19630323154191376,0.2,0,305.0,886.0,0.0,659.0,1,0.3980695050100871
1079,1079,0.46121743282331784,0.5,0,379.0,535.0,1.0,-484.0,0,0.4580836079793036
1080,1080,-0.1951574658923203,-0.2,1,308.0,791.0,1.0,201.0,1,0.24408154048016714
1081,1081,-0.09466832944822534,-0.1,1,460.0,602.0,1.0,528.0,1,0.3620382370931481
1082,1082,-0.39948284816063007,-0.4,1,272.0,631.0,1.0,167.0,1,0.361648115614729
1083,1083,-0.9366588108970464,-0.9,1,397.0,782.0,1.0,-399.0,1,0.4755732325347116
1084,1084,0.8215791157328898,0.8,0,360.0,763.0,1.0,-113.0,0,0.39966367590088525
1085,1085,-0.8870832886354942,-0.9,1,437.0,669.0,1.0,-556.0,1,0.468041854340086
1086,1086,-0.4326467687673088,-0.4,1,250.0,901.0,1.0,239.0,1,0.4071260969267443
1087,1087,-0.6157641167074601,-0.6,1,413.0,866.0,1.0,41.0,1,0.30051302898847887
1088,1088,0.1848609702157904,0.2,0,290.0,836.0,1.0,454.0,0,0.32600011779672533
1089,1089,-0.8023083871943142,-0.8,1,329.0,889.0,1.0,92.0,1,0.3524775408900436
1090,1090,0.6939771435934483,0.7,0,490.0,647.0,0.0,163.0,1,0.2905368313409791
1091,1091,-0.7598217813384804,-0.8,1,400.0,832.0,1.0,-52.0,1,0.45641069547112845
1092,1092,-0.05121119548730846,-0.1,1,335.0,765.0,1.0,190.0,1,0.26961138003192975
1093,1093,-0.16288466148501324,-0.2,1,335.0,712.0,1.0,363.0,1,0.3206009823660495
1094,1094,-0.6019124109813205,-0.6,1,330.0,859.0,1.0,-659.0,1,0.46911273864238945
1095,1095,0.098140812215191,0.1,0,259.0,785.0,0.0,616.0,1,0.29550369386651154
1096,1096,0.703941195217826,0.7,0,409.0,818.0,0.0,743.0,1,0.22831883154819907
1097,1097,-0.5216296186553935,-0.5,1,256.0,746.0,1.0,-552.0,1,0.473989644412895
1098,1098,0.749543277268985,0.7,0,403.0,952.0,0.0,265.0,1,0.37836913476640305
1099,1099,-0.32660493961960424,-0.3,1,322.0,567.0,1.0,901.0,1,0.3134156849394832
1100,1100,0.48844411162872925,0.5,0,309.0,847.0,0.0,144.0,1,0.3742700018307978
1101,1101,0.3115671730611478,0.3,0,316.0,595.0,0.0,279.0,1,0.2222750266385051
1102,1102,0.6147185627047633,0.6,0,346.0,803.0,0.0,41.0,1,0.3701805319439855
1103,1103,0.9057784254858419,0.9,0,455.0,924.0,0.0,-269.0,1,0.3940448710273544
1104,1104,-0.2913023371136241,-0.3,1,347.0,923.0,1.0,120.0,1,0.36262364090175464
1105,1105,0.6464923474229542,0.6,0,422.0,553.0,0.0,135.0,1,0.21526024094450988
1106,1106,0.4118434542819831,0.4,0,332.0,530.0,0.0,408.0,1,0.2500771599056525
1107,1107,0.5856467205476241,0.6,0,455.0,866.0,0.0,109.0,1,0.20686741134712378
1108,1108,-0.5405283026478815,-0.5,1,284.0,963.0,1.0,-847.0,1,0.45996044695260513
1109,1109,0.2246617017460948,0.2,0,466.0,972.0,1.0,-1058.0,0,0.4333812273570991
1110,1110,0.27090115146986005,0.3,0,470.0,704.0,1.0,-914.0,0,0.483745125582899
1111,1111,0.4900617986472282,0.5,0,329.0,550.0,0.0,111.0,1,0.39951914688631013
1112,1112,-0.5631214521021353,-0.6,1,491.0,538.0,1.0,231.0,1,0.400666799206898
1113,1113,0.6178588237564222,0.6,0,363.0,845.0,0.0,562.0,1,0.21304985762074036
1114,1114,-0.5743325533322501,-0.6,1,253.0,597.0,1.0,110.0,1,0.4098518508960933
1115,1115,0.884250131138888,0.9,0,445.0,869.0,0.0,186.0,1,0.2797835398740002
1116,1116,-0.020819215879959163,-0.0,1,388.0,941.0,1.0,511.0,1,0.2327549151471495
1117,1117,0.3489247809035445,0.3,0,287.0,602.0,0.0,191.0,1,0.3797519026651876
1118,1118,-0.9975766764464888,-1.0,1,287.0,786.0,1.0,47.0,1,0.29550660087781255
1119,1119,0.5882294490250559,0.6,0,298.0,819.0,0.0,383.0,1,0.3234028842487132
1120,1120,0.7694244894315745,0.8,0,443.0,524.0,0.0,313.0,1,0.22449570148173853
1121,1121,0.39440520748984054,0.4,0,468.0,788.0,0.0,974.0,1,0.46859794342682004
1122,1122,0.4194313794061344,0.4,0,399.0,847.0,0.0,614.0,1,0.24611670566815902
1123,1123,-0.9199371629176392,-0.9,1,255.0,552.0,1.0,123.0,1,0.4729122169887334
1124,1124,0.3353000849342602,0.3,0,282.0,987.0,0.0,381.0,1,0.22452051561759384
1125,1125,0.12417773681641564,0.1,0,251.0,538.0,1.0,201.0,0,0.22009492466679953
1126,1126,-0.796768024669771,-0.8,1,337.0,525.0,1.0,188.0,1,0.3553940660883743
1127,1127,0.01658801127210574,0.0,0,288.0,942.0,1.0,1230.0,0,0.29494746669757066
1128,1128,0.8883531690248618,0.9,0,494.0,949.0,1.0,-993.0,0,0.4884210903815208
1129,1129,0.8855622668167822,0.9,0,349.0,519.0,1.0,-478.0,0,0.4160883956612248
1130,1130,0.09627562394458167,0.1,0,312.0,881.0,1.0,87.0,0,0.41300765432891146
1131,1131,0.2605595735875652,0.3,0,296.0,584.0,0.0,210.0,1,0.2737013234018643
1132,1132,-0.4571529271316297,-0.5,1,467.0,606.0,1.0,167.0,1,0.32215071428373887
1133,1133,0.3173327043136751,0.3,0,324.0,515.0,0.0,481.0,1,0.29863054714804965
1134,1134,-0.04512556620655683,-0.0,1,456.0,669.0,1.0,-545.0,1,0.46998899576746833
1135,1135,0.44306548504539167,0.4,0,488.0,936.0,0.0,286.0,1,0.3879305277521784
1136,1136,0.6255344565947647,0.6,0,279.0,777.0,1.0,-306.0,0,0.4284001790022959
1137,1137,0.00850741759631557,0.0,0,403.0,839.0,0.0,288.0,1,0.20256522093330068
1138,1138,0.5056430128611071,0.5,0,422.0,614.0,1.0,-456.0,0,0.4187530977100179
1139,1139,-0.6774429864289355,-0.7,1,490.0,939.0,1.0,-1179.0,1,0.43425746526421183
1140,1140,-0.763215740408077,-0.8,1,317.0,503.0,1.0,140.0,1,0.2535902131140892
1141,1141,0.3793129848219514,0.4,0,253.0,811.0,1.0,-804.0,0,0.37155272987899624
1142,1142,0.8213965543987056,0.8,0,413.0,861.0,0.0,96.0,1,0.3481151677749651
1143,1143,0.8234673701724968,0.8,0,492.0,972.0,0.0,206.0,1,0.3379960243206772
1144,1144,0.6856577129656347,0.7,0,334.0,746.0,1.0,-90.0,0,0.4448758804726537
1145,1145,0.48928791219170553,0.5,0,278.0,748.0,0.0,154.0,1,0.46032574521356134
1146,1146,0.957722881488658,1.0,0,440.0,765.0,0.0,225.0,1,0.2267650450815157
1147,1147,-0.8540852556777618,-0.9,1,288.0,903.0,1.0,179.0,1,0.24044147456700635
1148,1148,-0.9142822830384296,-0.9,1,314.0,857.0,1.0,-741.0,1,0.4324624972580884
1149,1149,0.6532602101439704,0.7,0,289.0,869.0,0.0,262.0,1,0.28268302579269344
1150,1150,0.275679387921687,0.3,0,284.0,730.0,0.0,776.0,1,0.22421414889058486
1151,1151,-0.46246159981808055,-0.5,1,399.0,511.0,1.0,-420.0,1,0.4124147419643567
1152,1152,0.9912687186646714,1.0,0,257.0,706.0,0.0,127.0,1,0.27466429726211494
1153,1153,0.4636294135215375,0.5,0,491.0,656.0,1.0,-327.0,0,0.32871044195570115
1154,1154,-0.4473961190267721,-0.4,1,484.0,720.0,1.0,-264.0,1,0.37890822206479147
1155,1155,-0.5900963401877239,-0.6,1,438.0,896.0,1.0,146.0,1,0.2945657494699524
1156,1156,0.5394074427717985,0.5,0,271.0,577.0,0.0,212.0,1,0.2806987509109884
1157,1157,0.32865399674552376,0.3,0,482.0,817.0,1.0,-789.0,0,0.45808528186167913
1158,1158,-0.744979526534852,-0.7,1,434.0,778.0,1.0,98.0,1,0.3183121889193009
1159,1159,0.18258331004909367,0.2,0,293.0,712.0,1.0,35.0,0,0.369137744742675
1160,1160,-0.4485522168646463,-0.4,1,283.0,900.0,1.0,277.0,1,0.3951814608935499
1161,1161,0.32138788437203525,0.3,0,260.0,886.0,1.0,104.0,0,0.3026693066728342
1162,1162,0.3371575923504879,0.3,0,465.0,825.0,0.0,420.0,1,0.341466179397765
1163,1163,-0.7641510540376142,-0.8,1,457.0,579.0,1.0,244.0,1,0.28895891476188185
1164,1164,0.2673703792974711,0.3,0,387.0,515.0,0.0,368.0,1,0.2865661367732095
1165,1165,0.8140478691732147,0.8,0,385.0,676.0,0.0,269.0,1,0.20980878765584246
1166,1166,-0.8684333312114552,-0.9,1,282.0,823.0,1.0,225.0,1,0.2642629768331601
1167,1167,-0.5946026756281066,-0.6,1,260.0,559.0,1.0,61.0,1,0.38904790178555754
1168,1168,-0.7458414755328828,-0.7,1,306.0,576.0,1.0,208.0,1,0.23179257328249486
1169,1169,0.13908110272462904,0.1,0,469.0,866.0,0.0,285.0,1,0.23647276757680152
1170,1170,-0.43640039040972867,-0.4,1,327.0,973.0,1.0,-800.0,1,0.4689511258208873
1171,1171,0.33054581951744066,0.3,0,309.0,812.0,0.0,579.0,1,0.3022278510766634
1172,1172,-0.2679316657075437,-0.3,1,419.0,822.0,1.0,269.0,1,0.2570338326233833
1173,1173,0.5576878890611674,0.6,0,406.0,793.0,0.0,181.0,1,0.3136055850245209
1174,1174,0.6288823548815883,0.6,0,331.0,618.0,0.0,181.0,1,0.4004681806832413
1175,1175,0.7272333855306528,0.7,0,349.0,579.0,0.0,202.0,1,0.3337162095806123
1176,1176,0.8251627431770365,0.8,0,321.0,777.0,0.0,262.0,1,0.2323538408651454
1177,1177,0.9019266052416051,0.9,0,486.0,773.0,0.0,131.0,1,0.3809497993172729
1178,1178,0.5411720020035824,0.5,0,406.0,691.0,0.0,143.0,1,0.2921473765685957
1179,1179,0.2581504523345415,0.3,0,283.0,811.0,0.0,456.0,1,0.33233509825424234
1180,1180,-0.5468375390211384,-0.5,1,449.0,780.0,1.0,231.0,1,0.23162554141771385
1181,1181,-0.26320140853643403,-0.3,1,254.0,653.0,1.0,93.0,1,0.4256070990683833
1182,1182,-0.09503867546433287,-0.1,1,255.0,764.0,1.0,181.0,1,0.33437685583528154
1183,1183,0.6177640480712625,0.6,0,322.0,914.0,0.0,-486.0,1,0.474182681764054
1184,1184,0.4371939803228966,0.4,0,369.0,832.0,0.0,519.0,1,0.2690304583993098
1185,1185,-0.3896390149395266,-0.4,1,355.0,564.0,1.0,321.0,1,0.36706529623497064
1186,1186,-0.8563214999167763,-0.9,1,341.0,580.0,1.0,129.0,1,0.3907990918221045
1187,1187,0.4432325968653925,0.4,0,350.0,983.0,1.0,-843.0,0,0.4978138374597153
1188,1188,-0.6577934396959952,-0.7,1,299.0,953.0,1.0,-1002.0,1,0.374542310730396
1189,1189,-0.9267617947292723,-0.9,1,279.0,663.0,0.0,-372.0,0,0.45441861558475366
1190,1190,0.16958533931045183,0.2,0,252.0,700.0,0.0,948.0,1,0.34024970031165613
1191,1191,-0.6330257216800963,-0.6,1,345.0,675.0,1.0,160.0,1,0.21863213243649388
1192,1192,-0.778206756340057,-0.8,1,395.0,758.0,1.0,817.0,1,0.238781337409111
1193,1193,-0.7179798598134071,-0.7,1,313.0,984.0,1.0,-877.0,1,0.4482409985155078
1194,1194,0.31785381402903456,0.3,0,356.0,929.0,0.0,405.0,1,0.21345460150407317
1195,1195,-0.24555838674643526,-0.2,1,295.0,902.0,1.0,373.0,1,0.37336154141549754
1196,1196,0.7547084052302555,0.8,0,306.0,574.0,0.0,310.0,1,0.2774001736149902
1197,1197,-0.7893331215586157,-0.8,1,379.0,749.0,1.0,152.0,1,0.2547958209294072
1198,1198,-0.42767065239785373,-0.4,1,407.0,833.0,1.0,110.0,1,0.28986439284476784
1199,1199,-0.45035132450981985,-0.5,1,476.0,696.0,1.0,348.0,1,0.2563889823800983
1200,1200,0.9440443986940361,0.9,0,297.0,936.0,0.0,107.0,1,0.29396118583848224
1201,1201,0.5227071457701178,0.5,0,389.0,712.0,0.0,139.0,1,0.20569769221372675
1202,1202,-0.6757438785881955,-0.7,1,336.0,809.0,1.0,165.0,1,0.3993027717687456
1203,1203,-0.6514383215491737,-0.7,1,438.0,519.0,1.0,323.0,1,0.2598083171178656
1204,1204,-0.6676264944280703,-0.7,1,449.0,580.0,1.0,231.0,1,0.3196322353724895
1205,1205,0.22542742062568277,0.2,0,378.0,969.0,0.0,1043.0,1,0.4518237476050536
1206,1206,0.6259806532287011,0.6,0,262.0,638.0,0.0,220.0,1,0.41025818501668443
1207,1207,-0.6550678433431629,-0.7,1,364.0,938.0,1.0,138.0,1,0.2820943768383543
1208,1208,-0.07945603068628682,-0.1,1,295.0,554.0,1.0,121.0,1,0.3010336046300991
1209,1209,0.22307733050403544,0.2,0,395.0,985.0,0.0,350.0,1,0.22296767938040282
1210,1210,-0.6737427185444562,-0.7,1,440.0,709.0,1.0,211.0,1,0.3396546154409191
1211,1211,0.6547229713921057,0.7,0,295.0,581.0,0.0,144.0,1,0.20251701772853095
1212,1212,0.4146429458518086,0.4,0,372.0,921.0,1.0,-513.0,0,0.37670880174819554
1213,1213,0.45842582242220997,0.5,0,284.0,509.0,0.0,-293.0,1,0.4032810051607755
1214,1214,-0.25057095778111305,-0.3,1,368.0,688.0,1.0,84.0,1,0.3704688924766836
1215,1215,-0.19692406529359396,-0.2,1,426.0,960.0,1.0,-846.0,1,0.4033971949580821
1216,1216,-0.6850864752903081,-0.7,1,341.0,891.0,1.0,118.0,1,0.3968011517211478
1217,1217,-0.3098422418268685,-0.3,1,272.0,569.0,1.0,519.0,1,0.3510873066408272
1218,1218,-0.11951717266819317,-0.1,1,467.0,549.0,1.0,-216.0,1,0.4798144984660656
1219,1219,-0.3480688787455941,-0.3,1,359.0,686.0,1.0,-775.0,1,0.4845510715943384
1220,1220,0.575300258100637,0.6,0,257.0,844.0,0.0,329.0,1,0.2339336463778129
1221,1221,-0.5132211852315622,-0.5,1,416.0,688.0,1.0,116.0,1,0.2997577257909503
1222,1222,-0.23047788802706615,-0.2,1,310.0,893.0,1.0,87.0,1,0.2879182104301362
1223,1223,-0.2806233045119564,-0.3,1,419.0,615.0,1.0,236.0,1,0.39129373834347453
1224,1224,0.01498342404771913,0.0,0,477.0,663.0,1.0,2150.0,0,0.23536013581845833
1225,1225,0.8393488536459834,0.8,0,281.0,912.0,0.0,257.0,1,0.4338136348764814
1226,1226,-0.8479478891442769,-0.8,1,274.0,700.0,1.0,166.0,1,0.2781952142071668
1227,1227,0.40623791397264575,0.4,0,331.0,964.0,0.0,115.0,1,0.26116691510237405
1228,1228,-0.3778459653541033,-0.4,1,267.0,840.0,1.0,483.0,1,0.40523333595300604
1229,1229,0.44939259865885783,0.4,0,430.0,977.0,1.0,-267.0,0,0.3977833945159286
1230,1230,-0.49415572959577214,-0.5,1,304.0,670.0,1.0,296.0,1,0.2593604025602322
1231,1231,-0.06808589613029414,-0.1,1,419.0,822.0,1.0,239.0,1,0.2431857450014263
1232,1232,-0.4813803870961739,-0.5,1,396.0,640.0,1.0,174.0,1,0.28122253798394314
1233,1233,-0.9106969096718187,-0.9,1,409.0,788.0,1.0,103.0,1,0.35742191518825417
1234,1234,0.9694073349168704,1.0,0,383.0,555.0,0.0,-78.0,1,0.39351227792805477
1235,1235,0.2593429949796875,0.3,0,324.0,697.0,0.0,1059.0,1,0.25141525896625266
1236,1236,0.1581377035498881,0.2,0,411.0,545.0,0.0,1034.0,1,0.24494467763370936
1237,1237,-0.8770399161469069,-0.9,1,277.0,744.0,1.0,-661.0,1,0.4489464821635954
1238,1238,0.028332586571333307,0.0,0,271.0,542.0,0.0,697.0,1,0.4980846937872473
1239,1239,-0.35871321097992115,-0.4,1,468.0,900.0,1.0,42.0,1,0.2953564992724458
1240,1240,-0.4531718474448989,-0.5,1,361.0,671.0,1.0,188.0,1,0.22322637575818127
1241,1241,0.24868517679859958,0.2,0,324.0,559.0,0.0,457.0,1,0.48620680678475353
1242,1242,-0.3751168242346199,-0.4,1,429.0,910.0,1.0,-199.0,1,0.41938570369907435
1243,1243,0.6273697565622502,0.6,0,493.0,640.0,0.0,147.0,1,0.2590526485411533
1244,1244,-0.5901575962958236,-0.6,1,300.0,876.0,1.0,74.0,1,0.27369823050686104
1245,1245,-0.3095396497976677,-0.3,1,466.0,789.0,1.0,125.0,1,0.3763243204828979
1246,1246,-0.46186819568564386,-0.5,1,484.0,762.0,1.0,674.0,1,0.2181646114963672
1247,1247,-0.5616981577759765,-0.6,1,266.0,752.0,1.0,132.0,1,0.2935221322438949
1248,1248,0.1894949698130255,0.2,0,333.0,608.0,0.0,1129.0,1,0.3311928821122261
1249,1249,0.5894018432043848,0.6,0,280.0,941.0,0.0,259.0,1,0.30569565935189874
1250,1250,-0.0637807329748108,-0.1,1,406.0,734.0,1.0,470.0,1,0.3176588650022314
1251,1251,-0.012366189124072502,-0.0,1,492.0,513.0,1.0,315.0,1,0.3657436789190265
1252,1252,0.6874146180331149,0.7,0,319.0,888.0,1.0,-267.0,0,0.38364104245449027
1253,1253,-0.659912771803755,-0.7,1,411.0,975.0,1.0,-1076.0,1,0.44053765643621834
1254,1254,-0.0770012647779037,-0.1,1,298.0,665.0,1.0,587.0,1,0.34232910944626904
1255,1255,0.4031667117581037,0.4,0,413.0,558.0,1.0,59.0,0,0.3775908232914784
1256,1256,0.7555529820829208,0.8,0,481.0,704.0,1.0,-915.0,0,0.497407022949441
1257,1257,-0.3426187038053381,-0.3,1,386.0,819.0,1.0,425.0,1,0.3304737955279967
1258,1258,-0.43418178660631424,-0.4,1,405.0,535.0,1.0,190.0,1,0.3883138316999999
1259,1259,-0.011717388812665597,-0.0,1,479.0,602.0,1.0,379.0,1,0.4385841639497177
1260,1260,0.4594537416563558,0.5,0,349.0,717.0,0.0,364.0,1,0.27104727120539146
1261,1261,0.06126669928052442,0.1,0,422.0,943.0,0.0,1605.0,1,0.34400029583541747
1262,1262,0.6967299789677863,0.7,0,369.0,799.0,0.0,192.0,1,0.343738692061189
1263,1263,-0.6427302530025794,-0.6,1,368.0,608.0,1.0,124.0,1,0.23546236887776326
1264,1264,-0.6539299228608082,-0.7,1,419.0,992.0,1.0,219.0,1,0.2363720737510428
1265,1265,-0.8807849751374264,-0.9,1,437.0,785.0,1.0,118.0,1,0.37699373029492067
1266,1266,-0.7708541507978255,-0.8,1,352.0,704.0,1.0,414.0,1,0.2007256191409869
1267,1267,-0.7057889313937462,-0.7,1,435.0,656.0,1.0,339.0,1,0.2587880071881255
1268,1268,-0.3449128541912321,-0.3,1,288.0,537.0,1.0,355.0,1,0.2945047818225407
1269,1269,0.1894509673309508,0.2,0,375.0,998.0,0.0,307.0,1,0.27784731858525674
1270,1270,-0.5405765222292265,-0.5,1,461.0,894.0,1.0,135.0,1,0.46218605391492396
1271,1271,-0.6432734596137544,-0.6,1,370.0,835.0,1.0,365.0,1,0.3741596675348007
1272,1272,-0.49188849446683536,-0.5,1,329.0,691.0,1.0,-50.0,1,0.32245157063301755
1273,1273,-0.22485690620551368,-0.2,1,308.0,536.0,1.0,236.0,1,0.43232125954167183
1274,1274,0.6154326858877093,0.6,0,416.0,526.0,0.0,198.0,1,0.23501568253536928
1275,1275,-0.014218539496511307,-0.0,1,372.0,781.0,1.0,-503.0,1,0.4853327142760017
1276,1276,-0.040369649145270525,-0.0,1,379.0,660.0,1.0,491.0,1,0.37238712423510967
1277,1277,0.6813796706217947,0.7,0,489.0,788.0,1.0,-307.0,0,0.45147413033334904
