,trial,coherence,coherence_bin,correct_side,target_onset,checker_onset,decision,decision_time,correct_decision,g0,gSlope
0,0,-0.5193588391008033,-0.5,1,396.0,577.0,1.0,277.0,1,1.168471817473636,0.0
1,1,0.09838158915871409,0.1,0,303.0,809.0,0.0,268.0,1,0.6306641672986514,0.0
2,2,-0.6947219183625915,-0.7,1,310.0,572.0,1.0,238.0,1,0.8430607708733686,0.0
3,3,0.2774102126191651,0.3,0,377.0,615.0,0.0,98.0,1,1.1251688540733196,0.0
4,4,0.886424842943679,0.9,0,456.0,786.0,0.0,108.0,1,1.1667772771944145,0.0
5,5,0.6399959377602424,0.6,0,289.0,685.0,0.0,186.0,1,0.938851622034452,0.0
6,6,0.633484128987297,0.6,0,271.0,922.0,0.0,167.0,1,0.6289323864972292,0.0
7,7,-0.2516012504806999,-0.3,1,356.0,551.0,1.0,383.0,1,0.6262292203337452,0.0
8,8,0.12925791611958148,0.1,0,280.0,783.0,0.0,197.0,1,1.0872511463263959,0.0
9,9,0.7146232954214895,0.7,0,417.0,507.0,0.0,166.0,1,0.7780590871321238,0.0
10,10,0.501138721062925,0.5,0,303.0,694.0,0.0,113.0,1,1.0625811953333182,0.0
11,11,0.8507108174982523,0.9,0,424.0,520.0,0.0,176.0,1,0.9632970293065581,0.0
12,12,0.5611496580340218,0.6,0,377.0,984.0,0.0,189.0,1,0.7456259255626516,0.0
13,13,-0.0719730296742207,-0.1,1,486.0,893.0,0.0,991.0,0,0.9010903272703222,0.0
14,14,0.027728039167842278,0.0,0,441.0,917.0,1.0,172.0,0,1.1763964252507753,0.0
15,15,0.06409802609750526,0.1,0,410.0,762.0,0.0,328.0,1,1.2373080127399025,0.0
16,16,-0.6999916477068859,-0.7,1,389.0,641.0,1.0,210.0,1,0.7990236399379617,0.0
17,17,0.907038551236087,0.9,0,266.0,637.0,0.0,187.0,1,1.0778016343087986,0.0
18,18,-0.9224415357366229,-0.9,1,484.0,746.0,1.0,120.0,1,1.2075256556889102,0.0
19,19,-0.346984282810483,-0.3,1,310.0,856.0,1.0,344.0,1,0.9954659768028491,0.0
20,20,-0.8953595544190789,-0.9,1,476.0,781.0,1.0,193.0,1,0.721525515076108,0.0
21,21,-0.7900557454962147,-0.8,1,354.0,990.0,1.0,196.0,1,1.1604196592236478,0.0
22,22,0.7058606223555737,0.7,0,391.0,582.0,0.0,137.0,1,1.0970427687974684,0.0
23,23,0.44751365664603915,0.4,0,346.0,871.0,0.0,243.0,1,1.1207999465534866,0.0
24,24,0.18134971825195456,0.2,0,463.0,871.0,0.0,216.0,1,0.8266806961913469,0.0
25,25,-0.8930429621951859,-0.9,1,255.0,847.0,1.0,238.0,1,0.9802264389042669,0.0
26,26,-0.5009360891392616,-0.5,1,498.0,618.0,1.0,404.0,1,0.5372966675566717,0.0
27,27,-0.20007541734415657,-0.2,1,318.0,829.0,0.0,453.0,0,1.1246994814760083,0.0
28,28,-0.033514069536986435,-0.0,1,472.0,732.0,1.0,166.0,1,0.7488008747070498,0.0
29,29,0.18936892643975978,0.2,0,334.0,580.0,0.0,136.0,1,1.1764728373493831,0.0
30,30,0.6350510133612086,0.6,0,385.0,617.0,0.0,208.0,1,1.1162409325040206,0.0
31,31,-0.27775290246227735,-0.3,1,412.0,721.0,1.0,247.0,1,0.9645460520095068,0.0
32,32,0.07550648434883689,0.1,0,252.0,802.0,0.0,166.0,1,0.9482113397414397,0.0
33,33,-0.8625634349951166,-0.9,1,276.0,898.0,1.0,136.0,1,0.818731803965366,0.0
34,34,0.015710110581844683,0.0,0,250.0,678.0,0.0,422.0,1,0.8094285540118481,0.0
35,35,-0.1288299772144339,-0.1,1,379.0,788.0,0.0,173.0,0,0.9410215832450055,0.0
36,36,0.8087357829375741,0.8,0,408.0,958.0,0.0,124.0,1,0.8061752920867358,0.0
37,37,0.20522999112738605,0.2,0,448.0,596.0,0.0,256.0,1,0.8790072610149418,0.0
38,38,0.3617563588095787,0.4,0,372.0,511.0,0.0,217.0,1,0.5178534788172121,0.0
39,39,-0.36369608073069437,-0.4,1,256.0,745.0,1.0,389.0,1,0.5637635870557429,0.0
40,40,-0.9734857750615364,-1.0,1,279.0,825.0,1.0,236.0,1,1.1439162739863296,0.0
41,41,0.5439760586110525,0.5,0,285.0,960.0,0.0,145.0,1,0.8036112112508834,0.0
42,42,0.6324318135078844,0.6,0,413.0,899.0,0.0,278.0,1,1.1831028431276565,0.0
43,43,0.9106936913916086,0.9,0,454.0,841.0,0.0,85.0,1,0.8465885582730241,0.0
44,44,0.5319742740170799,0.5,0,365.0,742.0,0.0,183.0,1,0.7846065407975981,0.0
45,45,0.406356919094796,0.4,0,483.0,993.0,0.0,214.0,1,0.6612479510610875,0.0
46,46,-0.28332529900117476,-0.3,1,328.0,526.0,1.0,236.0,1,0.8907923517839246,0.0
47,47,0.40252864460251847,0.4,0,494.0,670.0,0.0,176.0,1,1.1952542964188737,0.0
48,48,0.5440996632389594,0.5,0,499.0,761.0,0.0,230.0,1,0.6450117797336705,0.0
49,49,0.25564912581517185,0.3,0,428.0,586.0,0.0,256.0,1,0.7011622422744339,0.0
50,50,0.5858043517654561,0.6,0,294.0,898.0,0.0,138.0,1,1.1467438852137646,0.0
51,51,0.840597567544431,0.8,0,383.0,950.0,0.0,107.0,1,0.9099198365732373,0.0
52,52,0.428897212379286,0.4,0,414.0,503.0,0.0,113.0,1,0.8111696344311171,0.0
53,53,-0.7495966622092078,-0.7,1,442.0,589.0,1.0,269.0,1,1.1755254279595024,0.0
54,54,0.26394047820345956,0.3,0,337.0,873.0,0.0,300.0,1,0.6470293962059401,0.0
55,55,-0.43861223073305156,-0.4,1,310.0,792.0,1.0,268.0,1,0.9917858582268648,0.0
56,56,-0.3224570633745558,-0.3,1,318.0,601.0,1.0,451.0,1,0.5668556142332442,0.0
57,57,-0.4434711991678415,-0.4,1,305.0,668.0,1.0,287.0,1,0.9201494974597607,0.0
58,58,-0.18674257141828443,-0.2,1,476.0,617.0,1.0,507.0,1,0.8750238349194293,0.0
59,59,0.2561863138569307,0.3,0,399.0,770.0,0.0,211.0,1,0.9170399013611343,0.0
60,60,0.8801170991434928,0.9,0,277.0,891.0,0.0,162.0,1,1.0255277635543352,0.0
61,61,-0.8496899776773483,-0.8,1,391.0,725.0,1.0,224.0,1,1.0273880333984893,0.0
62,62,-0.6155304501835634,-0.6,1,492.0,525.0,1.0,283.0,1,1.0116652662392427,0.0
63,63,-0.08854187078230069,-0.1,1,350.0,673.0,0.0,297.0,0,1.2169570481946903,0.0
64,64,0.31419206917725373,0.3,0,343.0,724.0,0.0,173.0,1,0.5327397443508354,0.0
65,65,-0.8588635431159974,-0.9,1,446.0,751.0,1.0,193.0,1,1.0889879689779915,0.0
66,66,0.6136847955378226,0.6,0,351.0,833.0,0.0,96.0,1,0.6830567493066513,0.0
67,67,0.016615867011252616,0.0,0,310.0,799.0,0.0,181.0,1,0.6412440245516748,0.0
68,68,0.08249741822451573,0.1,0,371.0,681.0,0.0,168.0,1,1.2188126905849317,0.0
69,69,-0.3693071500511931,-0.4,1,494.0,991.0,1.0,305.0,1,0.5629832884729569,0.0
70,70,0.999651142988659,1.0,0,480.0,636.0,0.0,214.0,1,1.0416164260655079,0.0
71,71,0.5007628965039868,0.5,0,493.0,823.0,0.0,184.0,1,1.2325713254248132,0.0
72,72,-0.7047060615014129,-0.7,1,400.0,546.0,1.0,354.0,1,1.034430709080916,0.0
73,73,0.4504710582313367,0.5,0,360.0,952.0,0.0,218.0,1,0.5935520403113442,0.0
74,74,-0.6666923987055162,-0.7,1,378.0,750.0,1.0,192.0,1,0.9771864401341324,0.0
75,75,0.36188865725332864,0.4,0,276.0,619.0,0.0,205.0,1,1.145641558474848,0.0
76,76,0.942667323928124,0.9,0,439.0,810.0,0.0,101.0,1,0.7277487490546248,0.0
77,77,0.19794338707798276,0.2,0,281.0,859.0,0.0,360.0,1,0.593527393689257,0.0
78,78,0.4794602357110984,0.5,0,342.0,794.0,0.0,104.0,1,1.059450825534505,0.0
79,79,0.8398118111861852,0.8,0,410.0,889.0,0.0,171.0,1,0.7200522544701173,0.0
80,80,0.13692908898580924,0.1,0,334.0,840.0,0.0,146.0,1,1.0598766477307344,0.0
81,81,0.0607943185772859,0.1,0,296.0,726.0,1.0,348.0,0,1.108101988523803,0.0
82,82,-0.2183146729469534,-0.2,1,387.0,683.0,0.0,290.0,0,1.0838584098496749,0.0
83,83,-0.2842131266067238,-0.3,1,491.0,649.0,1.0,400.0,1,1.2282832799747185,0.0
84,84,-0.002345700004000806,-0.0,1,321.0,610.0,0.0,399.0,0,0.7754045532511297,0.0
85,85,0.269732854090873,0.3,0,389.0,709.0,0.0,302.0,1,0.6879321666918503,0.0
86,86,-0.40660465505200394,-0.4,1,452.0,698.0,1.0,240.0,1,0.5918599388730695,0.0
87,87,0.7070993836404731,0.7,0,330.0,870.0,0.0,120.0,1,0.979649501314213,0.0
88,88,-0.8262227932174522,-0.8,1,387.0,904.0,1.0,239.0,1,0.9955402586879185,0.0
89,89,-0.36330179813450214,-0.4,1,355.0,689.0,1.0,426.0,1,0.5699245485453821,0.0
90,90,-0.6413307975284879,-0.6,1,334.0,667.0,1.0,249.0,1,0.9826533943522977,0.0
91,91,-0.27080725375121006,-0.3,1,302.0,805.0,1.0,293.0,1,0.740811937785949,0.0
92,92,0.7972129324822046,0.8,0,327.0,534.0,0.0,129.0,1,0.9803012106483189,0.0
93,93,0.6987654568932684,0.7,0,252.0,517.0,0.0,151.0,1,1.2014602328785222,0.0
94,94,0.12368760327866357,0.1,0,321.0,558.0,0.0,331.0,1,0.9255820577332937,0.0
95,95,-0.3397580710615058,-0.3,1,487.0,782.0,1.0,281.0,1,0.937863834070351,0.0
96,96,-0.10732899653191152,-0.1,1,292.0,543.0,0.0,805.0,0,0.5784547138493165,0.0
97,97,-0.019768503633461387,-0.0,1,409.0,930.0,0.0,241.0,0,0.9517254015991312,0.0
98,98,-0.8251972736271955,-0.8,1,476.0,907.0,1.0,157.0,1,0.7848333084423287,0.0
99,99,-0.9405153037288552,-0.9,1,325.0,652.0,1.0,183.0,1,0.9866022409545041,0.0
100,100,-0.8636064327772899,-0.9,1,350.0,735.0,1.0,195.0,1,1.097742537688299,0.0
101,101,0.786006985287959,0.8,0,329.0,724.0,0.0,147.0,1,0.8166686362027934,0.0
102,102,0.6757097867687125,0.7,0,389.0,614.0,0.0,197.0,1,0.9820673320010911,0.0
103,103,0.5339742367224545,0.5,0,317.0,505.0,0.0,278.0,1,0.5666587284662464,0.0
104,104,-0.6025550524037269,-0.6,1,390.0,883.0,1.0,267.0,1,0.588478947405486,0.0
105,105,0.5200316452897009,0.5,0,416.0,814.0,0.0,110.0,1,1.0884717467496636,0.0
106,106,0.6733295618037449,0.7,0,403.0,967.0,0.0,160.0,1,1.0154928877518796,0.0
107,107,0.18284720351222705,0.2,0,482.0,824.0,0.0,314.0,1,0.5005726192129321,0.0
108,108,0.14067171450904303,0.1,0,406.0,886.0,1.0,288.0,0,1.102474272406289,0.0
109,109,0.6844760894215376,0.7,0,340.0,527.0,0.0,143.0,1,1.2497186133086573,0.0
110,110,-0.11889969129113731,-0.1,1,388.0,846.0,1.0,256.0,1,0.9197371922114388,0.0
111,111,-0.5428290168124739,-0.5,1,389.0,631.0,1.0,160.0,1,1.118006333119613,0.0
112,112,-0.2357877413268865,-0.2,1,275.0,535.0,1.0,290.0,1,0.9762877020108286,0.0
113,113,0.6930004709205477,0.7,0,377.0,729.0,0.0,144.0,1,0.8188340822098477,0.0
114,114,0.019087825846676898,0.0,0,455.0,588.0,0.0,117.0,1,1.0745049593863127,0.0
115,115,0.4437461319846563,0.4,0,391.0,821.0,0.0,168.0,1,0.8100814998951867,0.0
116,116,-0.8252069361566723,-0.8,1,474.0,948.0,1.0,168.0,1,0.7739029196289793,0.0
117,117,0.88836918338332,0.9,0,392.0,779.0,0.0,99.0,1,0.9244990891851655,0.0
118,118,0.8232559586450778,0.8,0,454.0,955.0,0.0,111.0,1,1.1625176491096352,0.0
119,119,0.8766565161156936,0.9,0,447.0,730.0,0.0,233.0,1,0.5568570286009799,0.0
120,120,-0.5133365631161271,-0.5,1,253.0,800.0,1.0,237.0,1,0.8973836528146012,0.0
121,121,0.04264616999761284,0.0,0,326.0,732.0,0.0,1152.0,1,0.5622319002819574,0.0
122,122,0.3799491552926453,0.4,0,268.0,850.0,0.0,272.0,1,1.0670661782110202,0.0
123,123,0.6803591031927656,0.7,0,329.0,510.0,0.0,161.0,1,1.0772036820860027,0.0
124,124,0.9536048080291695,1.0,0,391.0,847.0,0.0,182.0,1,1.0796649151143112,0.0
125,125,-0.6447255817692932,-0.6,1,278.0,682.0,1.0,270.0,1,1.0550965426430805,0.0
126,126,-0.37856444936591904,-0.4,1,265.0,565.0,1.0,260.0,1,0.68696510337739,0.0
127,127,-0.5100073134396761,-0.5,1,375.0,716.0,1.0,259.0,1,0.9531793719827348,0.0
128,128,0.9424859244321879,0.9,0,495.0,613.0,0.0,112.0,1,1.0761100707148414,0.0
129,129,-0.06860534166858456,-0.1,1,253.0,605.0,0.0,742.0,0,0.5133392855554684,0.0
130,130,-0.4405892195891563,-0.4,1,401.0,756.0,1.0,203.0,1,0.7712075840155166,0.0
131,131,0.7691365171505331,0.8,0,425.0,907.0,0.0,88.0,1,0.6651017665761041,0.0
132,132,-0.8690410599662828,-0.9,1,345.0,523.0,1.0,162.0,1,1.118172982086517,0.0
133,133,-0.6523971637887254,-0.7,1,460.0,645.0,1.0,365.0,1,0.5090592178284834,0.0
134,134,-0.971982763780842,-1.0,1,349.0,933.0,1.0,128.0,1,0.834176208493674,0.0
135,135,-0.4113230252712705,-0.4,1,408.0,668.0,1.0,224.0,1,0.6219216595590817,0.0
136,136,0.6814158429490671,0.7,0,497.0,770.0,0.0,183.0,1,1.1060391277832724,0.0
137,137,-0.6355082059576744,-0.6,1,458.0,904.0,1.0,398.0,1,0.5812430431681986,0.0
138,138,-0.326206992877206,-0.3,1,327.0,941.0,1.0,292.0,1,0.5779100057782751,0.0
139,139,0.8938939823877714,0.9,0,321.0,928.0,0.0,171.0,1,1.0301073484270595,0.0
140,140,-0.07373668020786561,-0.1,1,443.0,563.0,1.0,514.0,1,0.9183888411386362,0.0
141,141,0.5731736466168909,0.6,0,348.0,593.0,0.0,119.0,1,1.1077592417665851,0.0
142,142,-0.14544350296946096,-0.1,1,351.0,569.0,0.0,600.0,0,0.6854539432284305,0.0
143,143,-0.18540189834435128,-0.2,1,411.0,842.0,1.0,367.0,1,0.9473212777619351,0.0
144,144,-0.661482799413712,-0.7,1,455.0,823.0,1.0,172.0,1,1.0973974543983638,0.0
145,145,-0.5522887946870934,-0.6,1,262.0,868.0,1.0,160.0,1,1.0655233739554326,0.0
146,146,0.05042651707317458,0.1,0,340.0,799.0,1.0,321.0,0,0.7973564894602571,0.0
147,147,-0.8785966082563064,-0.9,1,269.0,502.0,1.0,179.0,1,1.1921076201093843,0.0
148,148,0.4446683030020726,0.4,0,360.0,607.0,0.0,323.0,1,0.8192014053405076,0.0
149,149,0.9222008021171266,0.9,0,275.0,657.0,0.0,108.0,1,0.8437668603638552,0.0
150,150,0.704762811392253,0.7,0,257.0,571.0,0.0,452.0,1,0.5276669209168959,0.0
151,151,-0.8928559991325693,-0.9,1,308.0,625.0,1.0,117.0,1,1.0940871302462885,0.0
152,152,0.3110827081712604,0.3,0,357.0,978.0,0.0,265.0,1,0.6532053691914584,0.0
153,153,-0.9625167427128007,-1.0,1,463.0,746.0,1.0,131.0,1,0.9466844390385932,0.0
154,154,-0.4288705484706492,-0.4,1,401.0,545.0,0.0,-226.0,0,1.0816522745220254,0.0
155,155,-0.8843718639803866,-0.9,1,495.0,932.0,1.0,173.0,1,0.5777349313824969,0.0
156,156,0.4075789826911882,0.4,0,436.0,940.0,0.0,194.0,1,1.042509597070136,0.0
157,157,-0.7637515675759385,-0.8,1,451.0,837.0,1.0,142.0,1,0.7086630647913024,0.0
158,158,0.7536730167239833,0.8,0,377.0,694.0,0.0,219.0,1,1.0226379559625847,0.0
159,159,-0.7206307396003437,-0.7,1,303.0,762.0,1.0,265.0,1,0.5825040374597176,0.0
160,160,-0.7505216520131759,-0.8,1,483.0,503.0,1.0,324.0,1,0.500272708690595,0.0
161,161,-0.6002723084167563,-0.6,1,335.0,705.0,1.0,320.0,1,1.159649600105007,0.0
162,162,-0.44206681943077997,-0.4,1,324.0,827.0,1.0,349.0,1,0.9903675207002027,0.0
163,163,0.3168939832243225,0.3,0,337.0,983.0,0.0,170.0,1,1.2107754984182986,0.0
164,164,-0.2088429623464494,-0.2,1,314.0,964.0,1.0,172.0,1,0.9801546202669742,0.0
165,165,-0.7275577246429148,-0.7,1,427.0,667.0,1.0,166.0,1,0.9287232124284012,0.0
166,166,-0.22177133065976662,-0.2,1,473.0,875.0,0.0,462.0,0,1.1321380887369596,0.0
167,167,0.6535650232936927,0.7,0,250.0,661.0,0.0,179.0,1,0.7412729804918357,0.0
168,168,0.6974890041704422,0.7,0,471.0,886.0,0.0,203.0,1,0.9247169308765342,0.0
169,169,0.969420541226315,1.0,0,493.0,874.0,0.0,113.0,1,1.118977991496474,0.0
170,170,0.5724858867063349,0.6,0,415.0,597.0,0.0,238.0,1,0.9840415931350162,0.0
171,171,0.7057656481898706,0.7,0,334.0,615.0,0.0,81.0,1,1.2415746492656003,0.0
172,172,0.4469521529922207,0.4,0,285.0,610.0,0.0,145.0,1,0.6702143814404813,0.0
173,173,0.6318861843029362,0.6,0,275.0,520.0,0.0,175.0,1,0.5162324519677275,0.0
174,174,-0.1126628784217889,-0.1,1,302.0,952.0,0.0,276.0,0,1.076369176034414,0.0
175,175,0.8487898847685742,0.8,0,290.0,543.0,0.0,237.0,1,0.7546324926930759,0.0
176,176,0.4110236993799299,0.4,0,260.0,934.0,0.0,236.0,1,1.1962679751490977,0.0
177,177,0.5144366914175587,0.5,0,445.0,668.0,0.0,167.0,1,0.8176226062552925,0.0
178,178,0.5399847917022067,0.5,0,441.0,827.0,0.0,262.0,1,0.7204777455542865,0.0
179,179,0.7200659982903914,0.7,0,472.0,831.0,0.0,147.0,1,1.1812663516899224,0.0
180,180,0.44514526093881535,0.4,0,276.0,513.0,0.0,161.0,1,1.150794743233679,0.0
181,181,-0.29761126745118127,-0.3,1,456.0,638.0,1.0,256.0,1,0.6768704056304481,0.0
182,182,0.7363314765352156,0.7,0,495.0,829.0,0.0,176.0,1,0.6747171606324317,0.0
183,183,0.320032309352114,0.3,0,467.0,657.0,0.0,226.0,1,1.059560486060648,0.0
184,184,0.059503644220610274,0.1,0,312.0,975.0,0.0,163.0,1,0.9455705393788971,0.0
185,185,-0.5565412018787994,-0.6,1,474.0,754.0,1.0,202.0,1,1.2311744885385179,0.0
186,186,-0.3841434666247625,-0.4,1,351.0,976.0,1.0,323.0,1,0.6708388620196342,0.0
187,187,-0.35436316628824294,-0.4,1,287.0,940.0,1.0,213.0,1,0.7585037319462112,0.0
188,188,0.5119931673493976,0.5,0,270.0,958.0,0.0,222.0,1,0.6670878201520423,0.0
189,189,-0.2267755458651759,-0.2,1,324.0,607.0,0.0,449.0,0,1.0945457001880814,0.0
190,190,0.7164114766750271,0.7,0,427.0,797.0,0.0,136.0,1,1.1467813532497408,0.0
191,191,-0.8267080470783399,-0.8,1,292.0,798.0,1.0,200.0,1,0.6822366405823657,0.0
192,192,-0.9982011179207475,-1.0,1,342.0,947.0,1.0,151.0,1,0.8848827488351018,0.0
193,193,0.8071498450931749,0.8,0,479.0,614.0,0.0,217.0,1,0.5098866906871542,0.0
194,194,-0.35602429891515186,-0.4,1,272.0,870.0,1.0,178.0,1,0.7510086568765724,0.0
195,195,0.6547678362869185,0.7,0,480.0,994.0,0.0,206.0,1,0.6194497994932059,0.0
196,196,0.12311938010814671,0.1,0,432.0,755.0,0.0,183.0,1,1.2070809352067937,0.0
197,197,0.8728591091570164,0.9,0,474.0,906.0,0.0,150.0,1,0.6562578235757267,0.0
198,198,0.8327187129921296,0.8,0,464.0,750.0,0.0,166.0,1,0.7119907407585464,0.0
199,199,-0.02537554357423022,-0.0,1,320.0,703.0,0.0,527.0,0,0.880645247688221,0.0
200,200,0.5118980078677633,0.5,0,328.0,801.0,0.0,181.0,1,0.9929479405340425,0.0
201,201,-0.12476284342244659,-0.1,1,473.0,524.0,0.0,193.0,0,0.9964601025037436,0.0
202,202,0.6617522161878866,0.7,0,458.0,924.0,0.0,88.0,1,1.0778814992501373,0.0
203,203,-0.9688955547677827,-1.0,1,297.0,855.0,1.0,208.0,1,0.6467087794602986,0.0
204,204,-0.16811514474135492,-0.2,1,491.0,753.0,0.0,256.0,0,1.1004957879464128,0.0
205,205,-0.6456073789308254,-0.6,1,340.0,660.0,1.0,280.0,1,0.5388237285050667,0.0
206,206,-0.5230764984544076,-0.5,1,282.0,802.0,1.0,186.0,1,0.6707344318602684,0.0
207,207,-0.5079231142465008,-0.5,1,495.0,730.0,1.0,175.0,1,0.6870009064634386,0.0
208,208,0.5225154764767983,0.5,0,380.0,585.0,0.0,175.0,1,1.1709267261644252,0.0
209,209,-0.5858102454599623,-0.6,1,337.0,543.0,1.0,200.0,1,0.9345223277467084,0.0
210,210,-0.6268416825538996,-0.6,1,407.0,666.0,1.0,197.0,1,0.8941981651961712,0.0
211,211,0.31716080410812086,0.3,0,424.0,706.0,0.0,230.0,1,1.1479689423272639,0.0
212,212,0.31979145664279596,0.3,0,335.0,837.0,0.0,338.0,1,1.046908913733533,0.0
213,213,0.8480920645691148,0.8,0,338.0,888.0,0.0,124.0,1,1.1687134505431926,0.0
214,214,0.7629131810438565,0.8,0,357.0,793.0,0.0,90.0,1,0.9379644053768426,0.0
215,215,0.37664052951054594,0.4,0,259.0,704.0,0.0,197.0,1,1.149617004682017,0.0
216,216,0.5249467922414441,0.5,0,312.0,630.0,0.0,128.0,1,1.2271216830001068,0.0
217,217,0.9193634087914764,0.9,0,469.0,657.0,0.0,134.0,1,0.8559540778427327,0.0
218,218,0.7570516386193284,0.8,0,250.0,549.0,0.0,121.0,1,1.2196552979089474,0.0
219,219,-0.9474973179480435,-0.9,1,437.0,547.0,1.0,186.0,1,1.1782792387907415,0.0
220,220,0.6731188701925048,0.7,0,286.0,674.0,0.0,250.0,1,0.7980818850436424,0.0
221,221,-0.7551086265670472,-0.8,1,277.0,987.0,1.0,236.0,1,0.5558485570929921,0.0
222,222,0.6492588596279836,0.6,0,352.0,687.0,0.0,161.0,1,0.7072794176117936,0.0
223,223,-0.5497022855061884,-0.5,1,266.0,679.0,0.0,-195.0,0,0.8269638737095399,0.0
224,224,-0.3770959396624882,-0.4,1,487.0,569.0,1.0,184.0,1,0.8250298208638635,0.0
225,225,-0.1892172180077909,-0.2,1,327.0,677.0,1.0,256.0,1,0.882012880360169,0.0
226,226,0.9553138349004822,1.0,0,482.0,947.0,0.0,141.0,1,1.012029689717453,0.0
227,227,0.027888236875464267,0.0,0,458.0,742.0,0.0,1080.0,1,0.514953581068645,0.0
228,228,0.9804910100079891,1.0,0,471.0,525.0,0.0,214.0,1,0.6553075761808871,0.0
229,229,-0.35174161419680683,-0.4,1,410.0,909.0,1.0,211.0,1,0.6419083081589243,0.0
230,230,-0.8384037624235856,-0.8,1,398.0,538.0,1.0,174.0,1,0.6404654589615655,0.0
231,231,0.896873327768642,0.9,0,367.0,717.0,0.0,166.0,1,0.9388217450099909,0.0
232,232,-0.5983917705849939,-0.6,1,447.0,923.0,1.0,250.0,1,1.1700705525905777,0.0
233,233,0.1964266277681288,0.2,0,394.0,932.0,0.0,234.0,1,1.0455737156131797,0.0
234,234,0.07536589156080575,0.1,0,441.0,606.0,0.0,403.0,1,0.7641854458606251,0.0
235,235,0.46328284759570937,0.5,0,258.0,792.0,0.0,250.0,1,0.5319349384236524,0.0
236,236,0.58809860576799,0.6,0,298.0,863.0,0.0,119.0,1,0.5499209652373392,0.0
237,237,-0.6398078648985459,-0.6,1,335.0,522.0,1.0,343.0,1,0.5248377359565124,0.0
238,238,-0.8177823923590903,-0.8,1,467.0,974.0,1.0,269.0,1,0.7054855235564732,0.0
239,239,0.15997458562789668,0.2,0,315.0,550.0,1.0,275.0,0,1.0593094428144665,0.0
240,240,-0.41256748688050315,-0.4,1,329.0,920.0,1.0,241.0,1,0.6209358935290253,0.0
241,241,0.26130113200209926,0.3,0,477.0,591.0,0.0,182.0,1,1.0398230479489614,0.0
242,242,0.7836860562519705,0.8,0,253.0,961.0,0.0,146.0,1,0.6144304978928546,0.0
243,243,-0.6215196268224228,-0.6,1,472.0,740.0,1.0,168.0,1,0.6607985618099363,0.0
244,244,-0.7300770767321099,-0.7,1,458.0,964.0,1.0,148.0,1,1.1739748931705047,0.0
245,245,0.24317001814880101,0.2,0,363.0,951.0,0.0,206.0,1,1.106123031961868,0.0
246,246,-0.18821641621809415,-0.2,1,339.0,813.0,0.0,428.0,0,0.6453126985214775,0.0
247,247,0.5317318079431916,0.5,0,487.0,710.0,0.0,183.0,1,0.729595328621538,0.0
248,248,-0.26606955676547783,-0.3,1,295.0,924.0,1.0,261.0,1,0.5517644767569236,0.0
249,249,-0.5973369837081206,-0.6,1,296.0,798.0,1.0,216.0,1,1.184987273532623,0.0
250,250,0.46607029539485345,0.5,0,370.0,782.0,0.0,238.0,1,0.7616906963112487,0.0
251,251,-0.11975400703583583,-0.1,1,285.0,710.0,0.0,405.0,0,1.0395361281055533,0.0
252,252,-0.23113807412102028,-0.2,1,307.0,593.0,1.0,240.0,1,1.0330997042736336,0.0
253,253,0.5681362368314398,0.6,0,367.0,800.0,0.0,233.0,1,0.8107460603587349,0.0
254,254,0.5173932622241413,0.5,0,465.0,829.0,0.0,116.0,1,1.1930563010538229,0.0
255,255,-0.018054670928731475,-0.0,1,327.0,841.0,0.0,422.0,0,0.8214132845551866,0.0
256,256,0.2828006194243653,0.3,0,332.0,778.0,0.0,260.0,1,1.0291729184487537,0.0
257,257,-0.16639253214812455,-0.2,1,425.0,885.0,1.0,310.0,1,1.2346053189884998,0.0
258,258,-0.6314312873837249,-0.6,1,474.0,537.0,1.0,209.0,1,0.9820244015252225,0.0
259,259,-0.2177233769119089,-0.2,1,383.0,758.0,1.0,239.0,1,1.0441873744428918,0.0
260,260,0.2191589247236243,0.2,0,291.0,716.0,0.0,253.0,1,0.7731161186128285,0.0
261,261,-0.7838140170663688,-0.8,1,398.0,612.0,1.0,220.0,1,0.6333691367760569,0.0
262,262,0.03630021105478076,0.0,0,255.0,734.0,0.0,371.0,1,0.6720800315156128,0.0
263,263,-0.92430336412055,-0.9,1,313.0,993.0,1.0,284.0,1,0.8668358670588895,0.0
264,264,-0.14579406429734432,-0.1,1,287.0,849.0,0.0,554.0,0,0.6214795938603241,0.0
265,265,-0.9133662246223262,-0.9,1,457.0,602.0,1.0,221.0,1,1.0720344031980624,0.0
266,266,-0.36587815222961173,-0.4,1,455.0,786.0,1.0,239.0,1,0.635814967069322,0.0
267,267,0.8189152460497124,0.8,0,377.0,774.0,0.0,79.0,1,0.6728567346485572,0.0
268,268,-0.3465934934936592,-0.3,1,416.0,822.0,1.0,222.0,1,0.849545299582439,0.0
269,269,-0.872984664675682,-0.9,1,476.0,842.0,1.0,262.0,1,0.8805144524330115,0.0
270,270,-0.5387759455150474,-0.5,1,473.0,934.0,1.0,133.0,1,0.6665860348605133,0.0
271,271,-0.6772982969838526,-0.7,1,311.0,727.0,1.0,352.0,1,1.140186860268385,0.0
272,272,0.8485331701882395,0.8,0,413.0,927.0,0.0,-410.0,1,1.1782847776999628,0.0
273,273,0.9198794838508122,0.9,0,420.0,798.0,0.0,142.0,1,0.823547009756208,0.0
274,274,0.6207142549354483,0.6,0,255.0,737.0,0.0,168.0,1,1.2303347216244,0.0
275,275,-0.2516052336136403,-0.3,1,322.0,641.0,1.0,287.0,1,0.9116490073814211,0.0
276,276,-0.3484815007045998,-0.3,1,350.0,651.0,1.0,209.0,1,1.025745147266338,0.0
277,277,0.7869475908924746,0.8,0,485.0,803.0,0.0,142.0,1,1.1171025225912836,0.0
278,278,-0.35916878154807286,-0.4,1,308.0,913.0,0.0,99.0,0,1.0547346053464666,0.0
279,279,-0.40251707304794637,-0.4,1,369.0,557.0,1.0,324.0,1,1.0678644057483389,0.0
280,280,-0.7432185098216184,-0.7,1,448.0,962.0,1.0,280.0,1,1.0043262327031748,0.0
281,281,0.31209404349878667,0.3,0,483.0,993.0,0.0,224.0,1,0.8934811153611639,0.0
282,282,-0.1610097786034861,-0.2,1,315.0,710.0,0.0,225.0,0,0.9903850008895545,0.0
283,283,0.9162927947075166,0.9,0,353.0,840.0,0.0,217.0,1,1.1059385052701813,0.0
284,284,-0.8361368437288783,-0.8,1,373.0,683.0,1.0,134.0,1,0.5245577769840692,0.0
285,285,0.16398016655372327,0.2,0,342.0,829.0,0.0,299.0,1,0.5793957370532309,0.0
286,286,0.6909351588066133,0.7,0,459.0,956.0,0.0,115.0,1,0.8666115320217468,0.0
287,287,-0.5845787606864248,-0.6,1,279.0,736.0,1.0,325.0,1,0.7232661281895181,0.0
288,288,-0.7045750502753709,-0.7,1,372.0,636.0,1.0,152.0,1,1.0323427553762172,0.0
289,289,-0.5109873415427961,-0.5,1,454.0,808.0,1.0,218.0,1,1.2374940016080611,0.0
290,290,0.7472081483925739,0.7,0,340.0,834.0,0.0,136.0,1,0.8701524470415161,0.0
291,291,0.6050680643753847,0.6,0,311.0,588.0,0.0,141.0,1,0.919211545693862,0.0
292,292,0.8177686632027081,0.8,0,262.0,573.0,0.0,205.0,1,0.7626918948642087,0.0
293,293,-0.5080512000478175,-0.5,1,380.0,534.0,1.0,286.0,1,1.1737362786831729,0.0
294,294,-0.4655270069928388,-0.5,1,270.0,972.0,1.0,218.0,1,0.5775479375964511,0.0
295,295,-0.9767877168854053,-1.0,1,275.0,637.0,1.0,288.0,1,1.1360894876213128,0.0
296,296,-0.9441655830161049,-0.9,1,440.0,875.0,1.0,165.0,1,0.8694450862645006,0.0
297,297,0.3554637955096154,0.4,0,486.0,753.0,0.0,451.0,1,0.5925620631468107,0.0
298,298,-0.5721255622102475,-0.6,1,435.0,604.0,1.0,131.0,1,0.7192050006919068,0.0
299,299,0.3614642838156501,0.4,0,332.0,577.0,0.0,331.0,1,0.5041757029543384,0.0
300,300,0.622280003351674,0.6,0,333.0,898.0,0.0,169.0,1,1.2294545880454342,0.0
301,301,-0.47777493642226077,-0.5,1,353.0,721.0,1.0,286.0,1,1.0868901569401856,0.0
302,302,0.929710898440671,0.9,0,422.0,525.0,0.0,153.0,1,0.7090657891411368,0.0
303,303,-0.3375765093948826,-0.3,1,260.0,829.0,1.0,241.0,1,1.181618004504755,0.0
304,304,0.19556737921588074,0.2,0,310.0,990.0,0.0,230.0,1,0.734072847478466,0.0
305,305,0.44342629137270406,0.4,0,418.0,693.0,0.0,139.0,1,0.9689369212772042,0.0
306,306,0.09461911193746908,0.1,0,482.0,942.0,0.0,286.0,1,0.7721244636510627,0.0
307,307,0.6188945423333905,0.6,0,318.0,819.0,0.0,263.0,1,0.5046300282905638,0.0
308,308,-0.4762377750524034,-0.5,1,347.0,790.0,1.0,383.0,1,0.834520510860544,0.0
309,309,0.2114499246833983,0.2,0,491.0,746.0,0.0,273.0,1,0.8160031315459824,0.0
310,310,0.7005199607370631,0.7,0,274.0,737.0,0.0,149.0,1,1.0993287061459598,0.0
311,311,-0.5248143645902794,-0.5,1,344.0,825.0,1.0,291.0,1,0.8748403464490027,0.0
312,312,-0.19997127052254027,-0.2,1,490.0,978.0,1.0,2282.0,1,0.5159037645718483,0.0
313,313,-0.2219813551042915,-0.2,1,385.0,680.0,1.0,325.0,1,0.7843899369505309,0.0
314,314,0.9254260511770624,0.9,0,400.0,751.0,0.0,119.0,1,0.8438993767447417,0.0
315,315,-0.6513443241139876,-0.7,1,309.0,524.0,1.0,277.0,1,0.8704583203766996,0.0
316,316,0.1412391375720432,0.1,0,406.0,730.0,0.0,264.0,1,0.9370605232566073,0.0
317,317,-0.33258784340143066,-0.3,1,352.0,541.0,1.0,317.0,1,1.2321876172049482,0.0
318,318,-0.5239422378225296,-0.5,1,438.0,675.0,1.0,257.0,1,0.9197447116387039,0.0
319,319,-0.9719009514271197,-1.0,1,384.0,693.0,1.0,263.0,1,0.5055731975951246,0.0
320,320,0.19353540987354978,0.2,0,474.0,529.0,0.0,227.0,1,1.0557183513385922,0.0
321,321,-0.8722391086840156,-0.9,1,277.0,704.0,1.0,229.0,1,0.8721557909969173,0.0
322,322,0.4218168124407897,0.4,0,341.0,762.0,0.0,187.0,1,0.923022956458485,0.0
323,323,-0.21245444203762798,-0.2,1,277.0,564.0,1.0,319.0,1,0.6765030073660498,0.0
324,324,0.5443124385608655,0.5,0,272.0,994.0,0.0,174.0,1,0.6388066219100648,0.0
325,325,0.1441796155560735,0.1,0,257.0,523.0,0.0,610.0,1,0.6550359368209954,0.0
326,326,0.2917279034118372,0.3,0,380.0,641.0,0.0,119.0,1,1.0676577508384955,0.0
327,327,-0.4724553103720648,-0.5,1,435.0,824.0,1.0,201.0,1,0.6101754043270251,0.0
328,328,-0.32315082141216456,-0.3,1,308.0,618.0,1.0,374.0,1,1.2424255753497515,0.0
329,329,0.2618335512975041,0.3,0,463.0,764.0,1.0,393.0,0,0.7353829316837321,0.0
330,330,-0.18255473212929463,-0.2,1,311.0,535.0,1.0,304.0,1,1.0798436649283052,0.0
331,331,-0.8712859969662463,-0.9,1,333.0,684.0,1.0,133.0,1,1.2400864627344825,0.0
332,332,0.3636146286566708,0.4,0,263.0,896.0,0.0,191.0,1,0.9799049207021139,0.0
333,333,0.041241390066049544,0.0,0,344.0,996.0,0.0,330.0,1,1.1517457447744766,0.0
334,334,0.03055445520128086,0.0,0,356.0,522.0,0.0,392.0,1,0.6542440525317645,0.0
335,335,-0.014530188638670394,-0.0,1,413.0,792.0,0.0,255.0,0,0.8834274138955691,0.0
336,336,0.9788398751227725,1.0,0,497.0,658.0,0.0,135.0,1,0.9634465338511562,0.0
337,337,-0.9970639154127083,-1.0,1,412.0,801.0,1.0,157.0,1,0.9536253935051384,0.0
338,338,0.9841740507924805,1.0,0,333.0,842.0,0.0,95.0,1,0.9934756310292455,0.0
339,339,-0.2082441191204325,-0.2,1,396.0,973.0,0.0,291.0,0,0.8911577359060605,0.0
340,340,-0.16318250206606644,-0.2,1,406.0,982.0,0.0,192.0,0,1.1101323035517956,0.0
341,341,0.8063586410018986,0.8,0,457.0,840.0,0.0,153.0,1,0.875980137718543,0.0
342,342,-0.40506301751774454,-0.4,1,485.0,855.0,1.0,210.0,1,1.102881461983411,0.0
343,343,0.8601501074794389,0.9,0,474.0,934.0,0.0,212.0,1,1.0849085439290875,0.0
344,344,0.6004079257653538,0.6,0,361.0,751.0,0.0,118.0,1,0.967446999753615,0.0
345,345,0.44171406926642254,0.4,0,470.0,753.0,0.0,317.0,1,0.6244687774740967,0.0
346,346,-0.32686566761555924,-0.3,1,442.0,997.0,0.0,351.0,0,1.221935506311154,0.0
347,347,0.7065120906178259,0.7,0,474.0,902.0,0.0,214.0,1,1.204534921657664,0.0
348,348,0.058724900732206375,0.1,0,303.0,976.0,0.0,201.0,1,0.9922182688064256,0.0
349,349,-0.8822438847692768,-0.9,1,314.0,581.0,1.0,205.0,1,0.8218457483925199,0.0
350,350,0.7648575161652171,0.8,0,329.0,933.0,0.0,158.0,1,0.6231306849974043,0.0
351,351,-0.6118668713980719,-0.6,1,442.0,650.0,1.0,128.0,1,1.2212760381396501,0.0
352,352,-0.9476120322238972,-0.9,1,433.0,568.0,1.0,129.0,1,0.7159984523341665,0.0
353,353,0.9617800235444567,1.0,0,473.0,722.0,0.0,225.0,1,0.7998853143415559,0.0
354,354,0.9643342492988449,1.0,0,344.0,746.0,0.0,70.0,1,1.0430122866783507,0.0
355,355,-0.39376530740299254,-0.4,1,399.0,600.0,1.0,531.0,1,1.0519727547312916,0.0
356,356,-0.05352709509034659,-0.1,1,369.0,770.0,1.0,251.0,1,0.8525649883106294,0.0
357,357,-0.3123212507037805,-0.3,1,461.0,661.0,1.0,418.0,1,1.066644489521492,0.0
358,358,-0.04735895057528228,-0.0,1,449.0,708.0,0.0,213.0,0,1.072144731935722,0.0
359,359,0.30687943307443133,0.3,0,451.0,909.0,0.0,320.0,1,0.5771224022771813,0.0
360,360,-0.9726439356427066,-1.0,1,472.0,875.0,1.0,163.0,1,0.9298736952543214,0.0
361,361,0.41313499640727946,0.4,0,304.0,982.0,0.0,254.0,1,0.6295617076622073,0.0
362,362,-0.41291032962714147,-0.4,1,382.0,856.0,1.0,472.0,1,0.6567256469117418,0.0
363,363,-0.4534856250967816,-0.5,1,432.0,612.0,1.0,276.0,1,0.9910374267197467,0.0
364,364,0.697441731418637,0.7,0,408.0,948.0,0.0,164.0,1,0.8367794824116437,0.0
365,365,-0.46585377039616227,-0.5,1,470.0,799.0,1.0,361.0,1,0.6006735604510164,0.0
366,366,0.746413208587587,0.7,0,261.0,977.0,0.0,162.0,1,0.704706477052982,0.0
367,367,0.676244463691563,0.7,0,407.0,743.0,0.0,170.0,1,0.958983290516953,0.0
368,368,-0.4519252001194056,-0.5,1,301.0,576.0,1.0,223.0,1,1.1108087309551993,0.0
369,369,-0.9124745537354875,-0.9,1,296.0,618.0,1.0,196.0,1,1.058338899523178,0.0
370,370,-0.893015240273491,-0.9,1,309.0,981.0,1.0,150.0,1,0.9396903881920843,0.0
371,371,-0.333383923751009,-0.3,1,492.0,512.0,0.0,306.0,0,0.9178991976670183,0.0
372,372,-0.86238832403091,-0.9,1,283.0,590.0,1.0,157.0,1,0.5037188071309987,0.0
373,373,-0.21273720646827288,-0.2,1,278.0,968.0,1.0,224.0,1,1.2308245179462203,0.0
374,374,0.9595560921078088,1.0,0,445.0,839.0,0.0,106.0,1,1.1425755849290988,0.0
375,375,0.2509249896020753,0.3,0,360.0,885.0,0.0,135.0,1,0.8515667158270567,0.0
376,376,0.13409428526159406,0.1,0,314.0,675.0,0.0,211.0,1,0.8080560795742404,0.0
377,377,-0.2160780567265208,-0.2,1,383.0,545.0,0.0,752.0,0,0.7624923066997032,0.0
378,378,0.7846309592402558,0.8,0,409.0,812.0,0.0,149.0,1,0.9174666804626251,0.0
379,379,0.8765462194063944,0.9,0,493.0,646.0,0.0,91.0,1,0.8974694007824429,0.0
380,380,0.8451289011688305,0.8,0,405.0,743.0,0.0,182.0,1,0.9639477675814342,0.0
381,381,0.5820333135671742,0.6,0,487.0,790.0,0.0,103.0,1,1.18847259529162,0.0
382,382,0.3106814968231022,0.3,0,468.0,625.0,1.0,257.0,0,0.9376176845637554,0.0
383,383,-0.7368962723559391,-0.7,1,366.0,865.0,1.0,269.0,1,1.1864970401529034,0.0
384,384,0.6500683991579115,0.7,0,425.0,804.0,0.0,141.0,1,0.7540486224105167,0.0
385,385,-0.2549974841420144,-0.3,1,359.0,869.0,1.0,162.0,1,0.9451993879034215,0.0
386,386,0.7729451225945096,0.8,0,324.0,628.0,0.0,138.0,1,1.2457640938134844,0.0
387,387,-0.12426653436320567,-0.1,1,326.0,572.0,0.0,302.0,0,0.699048424949902,0.0
388,388,-0.4324550591263223,-0.4,1,425.0,733.0,1.0,132.0,1,1.1927364803833136,0.0
389,389,-0.6270178602673739,-0.6,1,354.0,567.0,1.0,159.0,1,1.0199097980926441,0.0
390,390,-0.8690878352275122,-0.9,1,294.0,654.0,1.0,192.0,1,0.941334330191065,0.0
391,391,0.4015478340956924,0.4,0,492.0,560.0,0.0,208.0,1,0.8058463489854781,0.0
392,392,-0.2888967792346939,-0.3,1,456.0,558.0,1.0,416.0,1,0.5244989529380644,0.0
393,393,0.2895921158025052,0.3,0,312.0,659.0,0.0,249.0,1,0.7565435936838789,0.0
394,394,0.9859526379513595,1.0,0,256.0,790.0,0.0,154.0,1,1.152522594692587,0.0
395,395,0.2808092864945706,0.3,0,339.0,954.0,0.0,117.0,1,1.109068750534556,0.0
396,396,0.3507804303312949,0.4,0,354.0,977.0,0.0,139.0,1,0.8568709062854492,0.0
397,397,-0.07847658042100503,-0.1,1,296.0,627.0,1.0,397.0,1,1.0782240205534526,0.0
398,398,-0.18914746086883727,-0.2,1,484.0,611.0,1.0,285.0,1,0.897237005012494,0.0
399,399,0.644112652295389,0.6,0,328.0,553.0,0.0,199.0,1,0.9444002168896957,0.0
400,400,0.1445681516369608,0.1,0,387.0,528.0,0.0,235.0,1,1.035588437345266,0.0
401,401,-0.11844210624308982,-0.1,1,375.0,762.0,0.0,303.0,0,0.5358721876184448,0.0
402,402,-0.7352475695964975,-0.7,1,369.0,670.0,1.0,181.0,1,0.5536969491266546,0.0
403,403,0.46030101034040527,0.5,0,291.0,969.0,0.0,340.0,1,0.581904632256411,0.0
404,404,-0.2616515209418684,-0.3,1,484.0,731.0,1.0,355.0,1,1.2173508078393467,0.0
405,405,0.6157624119174268,0.6,0,289.0,937.0,0.0,124.0,1,0.9228182969656644,0.0
406,406,0.72240415142072,0.7,0,320.0,610.0,0.0,210.0,1,0.8279672350625109,0.0
407,407,0.27884559034354495,0.3,0,478.0,536.0,0.0,336.0,1,0.7496352014452786,0.0
408,408,-0.4854591531602077,-0.5,1,409.0,964.0,1.0,217.0,1,0.7406817454163742,0.0
409,409,-0.673329871960159,-0.7,1,426.0,753.0,1.0,241.0,1,0.9228321251011482,0.0
410,410,0.4655473218067363,0.5,0,267.0,515.0,0.0,138.0,1,1.2229588088295986,0.0
411,411,0.09112173751330621,0.1,0,250.0,664.0,0.0,326.0,1,0.6681909984298733,0.0
412,412,0.010071636321828059,0.0,0,395.0,583.0,0.0,662.0,1,0.5326664351908922,0.0
413,413,0.42040681649421674,0.4,0,481.0,862.0,0.0,107.0,1,1.1557067550119364,0.0
414,414,0.22726835077299934,0.2,0,302.0,977.0,0.0,261.0,1,0.8490824774385368,0.0
415,415,-0.1849379493687846,-0.2,1,303.0,761.0,1.0,276.0,1,0.6211362216824533,0.0
416,416,0.2145606897881327,0.2,0,294.0,899.0,0.0,247.0,1,1.0711508572891097,0.0
417,417,0.7955600854175799,0.8,0,331.0,761.0,0.0,258.0,1,0.519618611467991,0.0
418,418,-0.6333721285391534,-0.6,1,330.0,833.0,1.0,177.0,1,0.6698911310420643,0.0
419,419,-0.9267058643626129,-0.9,1,270.0,595.0,1.0,115.0,1,1.2260540261635295,0.0
420,420,0.30098471337080546,0.3,0,389.0,934.0,0.0,307.0,1,1.1948719232516178,0.0
421,421,0.597796396479628,0.6,0,262.0,719.0,0.0,269.0,1,1.0753696435702604,0.0
422,422,0.22930313891700926,0.2,0,360.0,666.0,0.0,304.0,1,1.0582023205408737,0.0
423,423,-0.9240312791729861,-0.9,1,378.0,824.0,1.0,178.0,1,0.7796320656718065,0.0
424,424,0.5943195601070523,0.6,0,326.0,794.0,0.0,240.0,1,1.2228814506703989,0.0
425,425,-0.5046064211502608,-0.5,1,283.0,854.0,1.0,143.0,1,1.04999938459716,0.0
426,426,0.20311913201638543,0.2,0,420.0,546.0,0.0,344.0,1,1.0614826778630688,0.0
427,427,-0.01023984515990084,-0.0,1,498.0,529.0,1.0,233.0,1,1.235960492939945,0.0
428,428,-0.2648105088656898,-0.3,1,309.0,738.0,1.0,183.0,1,0.8103130240767118,0.0
429,429,-0.5439514754109849,-0.5,1,475.0,845.0,0.0,-530.0,0,0.8675002519528245,0.0
430,430,0.5478639677015138,0.5,0,371.0,604.0,0.0,95.0,1,0.9259763302228003,0.0
431,431,0.4935084833617154,0.5,0,313.0,900.0,0.0,197.0,1,1.0522400044764615,0.0
432,432,0.879640020351868,0.9,0,438.0,515.0,0.0,187.0,1,0.5740566672449186,0.0
433,433,-0.4618031216077816,-0.5,1,274.0,798.0,1.0,208.0,1,0.9843216781847122,0.0
434,434,0.29435116664652616,0.3,0,319.0,712.0,0.0,269.0,1,0.8014677155717556,0.0
435,435,-0.0285096452457263,-0.0,1,408.0,744.0,0.0,98.0,0,1.1755823650080843,0.0
436,436,-0.12235329088787172,-0.1,1,423.0,759.0,1.0,298.0,1,0.8668210573943198,0.0
437,437,0.5100563020271818,0.5,0,252.0,995.0,0.0,203.0,1,1.2134789058842008,0.0
438,438,-0.6378596009368394,-0.6,1,479.0,691.0,1.0,300.0,1,0.955211020473725,0.0
439,439,-0.0465732057013406,-0.0,1,414.0,594.0,0.0,402.0,0,1.1620712551739052,0.0
440,440,0.8855605611142228,0.9,0,259.0,824.0,0.0,127.0,1,0.6550191655704132,0.0
441,441,0.8178055238275737,0.8,0,472.0,775.0,0.0,153.0,1,1.0935001770709794,0.0
442,442,0.3589772241068767,0.4,0,481.0,714.0,0.0,255.0,1,0.8222791532718452,0.0
443,443,-0.7056050085521035,-0.7,1,499.0,800.0,1.0,231.0,1,1.1183285090894566,0.0
444,444,-0.14589269587488096,-0.1,1,332.0,799.0,1.0,159.0,1,1.0289427180747768,0.0
445,445,0.2881956000637109,0.3,0,374.0,535.0,0.0,411.0,1,1.0358739094713225,0.0
446,446,0.5706010606797782,0.6,0,413.0,914.0,0.0,213.0,1,0.5286335174673489,0.0
447,447,0.6582922106539979,0.7,0,364.0,699.0,0.0,107.0,1,1.1158033484785819,0.0
448,448,-0.21556663530934217,-0.2,1,390.0,847.0,1.0,333.0,1,0.9027328058660208,0.0
449,449,0.2037289811383478,0.2,0,482.0,562.0,0.0,276.0,1,0.8264347649281755,0.0
450,450,-0.5050782068691049,-0.5,1,493.0,895.0,1.0,332.0,1,0.5785295025093241,0.0
451,451,-0.5319063964964079,-0.5,1,446.0,674.0,1.0,230.0,1,0.6458465822572285,0.0
452,452,-0.0546878862870952,-0.1,1,412.0,788.0,1.0,410.0,1,0.9225261316411401,0.0
453,453,0.5094459174454538,0.5,0,329.0,935.0,0.0,156.0,1,0.8904669446487695,0.0
454,454,0.11151035802374065,0.1,0,289.0,569.0,0.0,412.0,1,1.1742996207163128,0.0
455,455,0.9014792475128006,0.9,0,278.0,514.0,0.0,148.0,1,0.6596681999737654,0.0
456,456,-0.2632993757290958,-0.3,1,335.0,897.0,1.0,238.0,1,1.0730324172795593,0.0
457,457,-0.47818968736638534,-0.5,1,304.0,888.0,1.0,178.0,1,1.0298114530538922,0.0
458,458,-0.05458229245909707,-0.1,1,426.0,906.0,0.0,478.0,0,0.5261537719539047,0.0
459,459,0.609961072092553,0.6,0,308.0,670.0,0.0,132.0,1,1.056061297478028,0.0
460,460,-0.4577432182087817,-0.5,1,377.0,596.0,1.0,487.0,1,1.1747948124494776,0.0
461,461,0.44433212994718563,0.4,0,284.0,656.0,0.0,200.0,1,1.2429487783352116,0.0
462,462,0.0897131572835379,0.1,0,467.0,576.0,0.0,177.0,1,1.1284122839790904,0.0
463,463,-0.23837566092956353,-0.2,1,474.0,626.0,1.0,460.0,1,0.7237560623753392,0.0
464,464,0.084469437685329,0.1,0,341.0,805.0,0.0,414.0,1,0.8236931213948783,0.0
465,465,0.5567738487808949,0.6,0,396.0,769.0,0.0,245.0,1,0.6978858103061012,0.0
466,466,-0.04322060383853166,-0.0,1,457.0,725.0,1.0,208.0,1,0.7940012927239861,0.0
467,467,0.4963510363116119,0.5,0,365.0,886.0,0.0,99.0,1,1.0893896850568963,0.0
468,468,0.6210709264529322,0.6,0,486.0,509.0,0.0,185.0,1,0.9360671832915642,0.0
469,469,0.9893679429281941,1.0,0,419.0,684.0,0.0,137.0,1,0.5245803511720774,0.0
470,470,-0.34287361539702865,-0.3,1,317.0,968.0,1.0,555.0,1,0.5810259175084816,0.0
471,471,0.4836260335987106,0.5,0,323.0,783.0,0.0,154.0,1,0.8171145807928374,0.0
472,472,-0.7138379714027112,-0.7,1,281.0,721.0,1.0,328.0,1,0.9870539815462473,0.0
473,473,-0.31390039135104053,-0.3,1,285.0,623.0,1.0,242.0,1,0.7951464777519268,0.0
474,474,-0.9994288646239955,-1.0,1,492.0,929.0,1.0,39.0,1,0.8010652734019157,0.0
475,475,-0.25728004921039815,-0.3,1,375.0,551.0,1.0,144.0,1,1.2026764249745074,0.0
476,476,0.6252007333870493,0.6,0,300.0,718.0,0.0,122.0,1,0.5780228967436961,0.0
477,477,0.2803809435386577,0.3,0,274.0,818.0,0.0,138.0,1,0.9255824380554323,0.0
478,478,0.02792731516778657,0.0,0,340.0,536.0,0.0,194.0,1,0.7364134633228674,0.0
479,479,-0.7397698141717626,-0.7,1,287.0,885.0,1.0,208.0,1,1.0268933219124572,0.0
480,480,-0.3247525764247601,-0.3,1,255.0,821.0,1.0,434.0,1,1.1952072686763433,0.0
481,481,0.18229162271426302,0.2,0,415.0,952.0,0.0,343.0,1,0.9101596636594241,0.0
482,482,-0.4261352910075895,-0.4,1,463.0,684.0,1.0,333.0,1,0.6878361869390577,0.0
483,483,-0.003607606893598847,-0.0,1,418.0,980.0,0.0,562.0,0,0.5377216119157884,0.0
484,484,-0.3789361648867067,-0.4,1,299.0,713.0,0.0,488.0,0,1.1542336296610753,0.0
485,485,-0.7783920341119857,-0.8,1,302.0,922.0,1.0,226.0,1,0.6637168308136896,0.0
486,486,0.15741707581399855,0.2,0,407.0,763.0,0.0,140.0,1,0.8679640345827098,0.0
487,487,-0.7389713847420054,-0.7,1,273.0,832.0,1.0,165.0,1,0.9703034106390236,0.0
488,488,0.7365033527589464,0.7,0,470.0,861.0,0.0,139.0,1,1.210680164966422,0.0
489,489,0.0305270630234169,0.0,0,433.0,801.0,0.0,196.0,1,1.2021138920656746,0.0
490,490,0.9156905643034343,0.9,0,447.0,747.0,0.0,106.0,1,0.6446012271643826,0.0
491,491,-0.1786112689414745,-0.2,1,314.0,898.0,0.0,298.0,0,0.9123715003872617,0.0
492,492,-0.7877318144137557,-0.8,1,343.0,863.0,1.0,184.0,1,1.0306854191572983,0.0
493,493,-0.7396303363950572,-0.7,1,273.0,812.0,1.0,215.0,1,1.0952767266277608,0.0
494,494,0.17527439020493918,0.2,0,265.0,950.0,0.0,245.0,1,1.2485581558681937,0.0
495,495,-0.1479575931638628,-0.1,1,343.0,620.0,0.0,197.0,0,1.143793821750517,0.0
496,496,0.4155854326188413,0.4,0,483.0,937.0,0.0,320.0,1,1.248602059073979,0.0
497,497,-0.862639844106355,-0.9,1,282.0,770.0,1.0,238.0,1,0.598610427107804,0.0
498,498,0.27065958842149684,0.3,0,417.0,696.0,0.0,207.0,1,0.8573903642142866,0.0
499,499,0.22220888233707004,0.2,0,333.0,889.0,0.0,208.0,1,0.6405031757191157,0.0
500,500,-0.4938901119597876,-0.5,1,398.0,620.0,1.0,232.0,1,1.168035540903382,0.0
501,501,-0.7236268439442111,-0.7,1,271.0,850.0,1.0,179.0,1,0.5461118944978298,0.0
502,502,-0.5471473530079116,-0.5,1,358.0,587.0,1.0,225.0,1,0.7252698041184893,0.0
503,503,-0.1334192123483331,-0.1,1,366.0,644.0,0.0,290.0,0,0.7612378051560507,0.0
504,504,0.15411324593639408,0.2,0,446.0,968.0,0.0,186.0,1,1.1438041632580775,0.0
505,505,-0.7386700475368393,-0.7,1,387.0,621.0,1.0,142.0,1,1.042090114492146,0.0
506,506,0.6775979427386918,0.7,0,432.0,570.0,0.0,138.0,1,1.0700586114135129,0.0
507,507,0.41313929191783916,0.4,0,358.0,992.0,0.0,230.0,1,0.6167515826458289,0.0
508,508,-0.11282704874187033,-0.1,1,297.0,658.0,1.0,395.0,1,0.748847679183296,0.0
509,509,0.537311757140343,0.5,0,331.0,718.0,0.0,131.0,1,0.7988106212445287,0.0
510,510,0.07391158584173874,0.1,0,444.0,505.0,0.0,611.0,1,0.5570693759737502,0.0
511,511,-0.6045000552653546,-0.6,1,311.0,810.0,1.0,149.0,1,0.9924612966188807,0.0
512,512,0.39402638296522996,0.4,0,477.0,662.0,0.0,161.0,1,1.0204575044892836,0.0
513,513,-0.45631785346566933,-0.5,1,378.0,593.0,1.0,269.0,1,1.1267419188926655,0.0
514,514,0.38946026901673325,0.4,0,377.0,743.0,0.0,200.0,1,0.8632210700180212,0.0
515,515,-0.892055076100196,-0.9,1,450.0,651.0,1.0,259.0,1,0.7202924148126868,0.0
516,516,0.9369575449469185,0.9,0,341.0,864.0,0.0,145.0,1,0.8725556342116665,0.0
517,517,0.23664444276162322,0.2,0,467.0,972.0,0.0,231.0,1,1.073766283521782,0.0
518,518,-0.7059897788792711,-0.7,1,413.0,854.0,1.0,233.0,1,1.2141981021685857,0.0
519,519,0.3324001291871228,0.3,0,277.0,651.0,0.0,242.0,1,0.8467321190227182,0.0
520,520,-0.6266643387245434,-0.6,1,493.0,685.0,1.0,282.0,1,1.2160699170239153,0.0
521,521,-0.6933051066946294,-0.7,1,440.0,923.0,1.0,267.0,1,1.1896853067096242,0.0
522,522,0.8948528062309125,0.9,0,440.0,676.0,0.0,154.0,1,0.7229828790170797,0.0
523,523,0.998383178185311,1.0,0,462.0,676.0,0.0,102.0,1,0.5571399484380626,0.0
524,524,0.34707321350164455,0.3,0,325.0,665.0,0.0,160.0,1,0.8948752847345308,0.0
525,525,0.8931414563725668,0.9,0,420.0,700.0,0.0,160.0,1,0.6166250132937192,0.0
526,526,0.45493181676962746,0.5,0,433.0,903.0,0.0,174.0,1,0.7095677475427915,0.0
527,527,0.8286487392497723,0.8,0,493.0,509.0,0.0,138.0,1,0.9994634865734664,0.0
528,528,0.3869719313870348,0.4,0,471.0,871.0,0.0,208.0,1,1.1552088804565415,0.0
529,529,-0.6780346636495198,-0.7,1,485.0,951.0,1.0,184.0,1,0.949390568646618,0.0
530,530,-0.8564165953332703,-0.9,1,417.0,682.0,1.0,171.0,1,0.801577694625528,0.0
531,531,0.9341389453937943,0.9,0,409.0,862.0,0.0,159.0,1,1.018163266017472,0.0
532,532,0.9589430388187137,1.0,0,378.0,691.0,0.0,261.0,1,1.1395286785280139,0.0
533,533,-0.002195060713956476,-0.0,1,481.0,843.0,1.0,426.0,1,0.9290352470662524,0.0
534,534,-0.8602198459822235,-0.9,1,394.0,504.0,1.0,412.0,1,1.2170911216016704,0.0
535,535,-0.5961678323216242,-0.6,1,476.0,672.0,1.0,592.0,1,0.5413536916277346,0.0
536,536,0.5366800772356419,0.5,0,302.0,664.0,0.0,164.0,1,0.7778060121563676,0.0
537,537,0.33431476264637716,0.3,0,496.0,672.0,0.0,292.0,1,0.8557925301490917,0.0
538,538,-0.2314705583108736,-0.2,1,262.0,610.0,0.0,478.0,0,0.9474973038544777,0.0
539,539,0.5357506604884408,0.5,0,301.0,645.0,0.0,324.0,1,1.1653970504036648,0.0
540,540,-0.5817176696493387,-0.6,1,391.0,855.0,1.0,364.0,1,0.7373864296959698,0.0
541,541,-0.13079771582924682,-0.1,1,360.0,500.0,1.0,1170.0,1,0.5679452347975388,0.0
542,542,-0.541295500209616,-0.5,1,367.0,899.0,1.0,324.0,1,0.8105242888487816,0.0
543,543,-0.8335980588816492,-0.8,1,275.0,609.0,1.0,166.0,1,1.002172395905943,0.0
544,544,-0.499927650490396,-0.5,1,489.0,545.0,1.0,376.0,1,0.7492846497943821,0.0
545,545,0.8672901307765131,0.9,0,332.0,627.0,0.0,111.0,1,0.8005953349592533,0.0
546,546,-0.7437056580222394,-0.7,1,370.0,828.0,1.0,202.0,1,0.8372902551188041,0.0
547,547,0.9125983969259914,0.9,0,364.0,562.0,0.0,154.0,1,1.1199905584978662,0.0
548,548,0.5877347834670019,0.6,0,379.0,525.0,0.0,196.0,1,0.9808644332885416,0.0
549,549,0.08689693551992894,0.1,0,430.0,831.0,0.0,279.0,1,0.7759336321365662,0.0
550,550,0.7626358487314246,0.8,0,399.0,903.0,0.0,108.0,1,1.110333598747556,0.0
551,551,0.5131483509962724,0.5,0,428.0,868.0,0.0,144.0,1,1.0843520942112286,0.0
552,552,0.20754675909377007,0.2,0,459.0,769.0,0.0,322.0,1,0.5528493801993465,0.0
553,553,-0.5134451881521749,-0.5,1,340.0,815.0,1.0,185.0,1,0.9052324317646651,0.0
554,554,-0.5007131735832744,-0.5,1,377.0,757.0,1.0,286.0,1,0.5226520235416676,0.0
555,555,-0.41559902305453567,-0.4,1,293.0,676.0,1.0,141.0,1,0.7023917115560181,0.0
556,556,-0.36583851441783444,-0.4,1,281.0,680.0,1.0,119.0,1,0.8549932297904965,0.0
557,557,-0.38890244344754543,-0.4,1,406.0,605.0,1.0,199.0,1,0.8515114584688728,0.0
558,558,0.4119869968080836,0.4,0,458.0,797.0,0.0,275.0,1,0.5641763177301236,0.0
559,559,-0.8466284890332454,-0.8,1,289.0,987.0,1.0,164.0,1,0.8429624226897329,0.0
560,560,0.23638506307849516,0.2,0,362.0,894.0,0.0,194.0,1,0.8286770209439697,0.0
561,561,-0.27277037446545593,-0.3,1,462.0,680.0,1.0,308.0,1,0.8806940385866732,0.0
562,562,-0.41020923337957815,-0.4,1,409.0,867.0,1.0,464.0,1,0.7849252359402422,0.0
563,563,-0.010865423173611388,-0.0,1,411.0,891.0,0.0,378.0,0,0.6643040597745443,0.0
564,564,-0.254358311735555,-0.3,1,325.0,965.0,1.0,180.0,1,1.0208998162880174,0.0
565,565,0.8761743104510147,0.9,0,388.0,730.0,0.0,122.0,1,0.7860016130944651,0.0
566,566,0.1264078991462998,0.1,0,398.0,535.0,0.0,157.0,1,1.117300337244484,0.0
567,567,0.38934550941821255,0.4,0,287.0,765.0,0.0,248.0,1,0.7456580135900069,0.0
568,568,-0.6773965725616335,-0.7,1,385.0,623.0,1.0,112.0,1,1.0432160224396148,0.0
569,569,0.8242874951485804,0.8,0,452.0,997.0,0.0,161.0,1,1.119737865976206,0.0
570,570,0.7788680705366573,0.8,0,457.0,523.0,0.0,70.0,1,0.6220789477504873,0.0
571,571,-0.1469077784972217,-0.1,1,484.0,841.0,0.0,315.0,0,1.154627638170622,0.0
572,572,-0.8841525945051212,-0.9,1,412.0,559.0,1.0,109.0,1,0.7366142145398074,0.0
573,573,0.6184423204611986,0.6,0,400.0,824.0,0.0,106.0,1,1.0581172503861855,0.0
574,574,0.8642421981403432,0.9,0,318.0,987.0,0.0,155.0,1,0.7807534369167133,0.0
575,575,-0.47654103080015986,-0.5,1,469.0,695.0,1.0,326.0,1,0.8937093112047831,0.0
576,576,-0.9281086316944407,-0.9,1,409.0,594.0,1.0,117.0,1,0.9283660887067224,0.0
577,577,-0.9643560216522178,-1.0,1,428.0,826.0,1.0,186.0,1,0.6224226549949583,0.0
578,578,0.6600609554139985,0.7,0,428.0,620.0,0.0,212.0,1,1.0122622015256642,0.0
579,579,0.5869605411352457,0.6,0,299.0,858.0,0.0,93.0,1,1.0168480051733157,0.0
580,580,-0.3412815681244179,-0.3,1,384.0,558.0,1.0,628.0,1,0.7920980655748338,0.0
581,581,0.6794791714864201,0.7,0,342.0,975.0,0.0,343.0,1,0.537225152876833,0.0
582,582,0.0016227211352144444,0.0,0,287.0,645.0,0.0,438.0,1,0.6998993188832365,0.0
583,583,0.6999593082677007,0.7,0,450.0,509.0,0.0,221.0,1,0.9823634879232899,0.0
584,584,0.2729187052949502,0.3,0,357.0,902.0,0.0,291.0,1,0.5487402966537738,0.0
585,585,-0.19782984241139223,-0.2,1,290.0,960.0,1.0,150.0,1,0.9971824837371013,0.0
586,586,-0.6102155615298224,-0.6,1,449.0,665.0,1.0,246.0,1,0.9345765608844285,0.0
587,587,0.05642340208211549,0.1,0,456.0,821.0,0.0,373.0,1,1.0554212058030301,0.0
588,588,-0.8826310964054409,-0.9,1,436.0,604.0,1.0,150.0,1,0.9433606295505783,0.0
589,589,-0.7340360910646855,-0.7,1,414.0,766.0,1.0,210.0,1,1.209600291218674,0.0
590,590,-0.9743558256926634,-1.0,1,346.0,918.0,1.0,236.0,1,1.0989555325608258,0.0
591,591,-0.5542548354319135,-0.6,1,312.0,625.0,1.0,373.0,1,0.6012609732725351,0.0
592,592,0.8106959153299069,0.8,0,493.0,505.0,0.0,122.0,1,1.0098691957256634,0.0
593,593,-0.6452228767716703,-0.6,1,265.0,816.0,1.0,359.0,1,0.5132795833587263,0.0
594,594,-0.18098548398112713,-0.2,1,338.0,808.0,1.0,984.0,1,0.6036564967566046,0.0
595,595,0.25842103604795597,0.3,0,473.0,530.0,0.0,247.0,1,0.5662989188459834,0.0
596,596,-0.4277741273870057,-0.4,1,449.0,950.0,1.0,251.0,1,0.8957722780573053,0.0
597,597,-0.9317410236917081,-0.9,1,469.0,807.0,1.0,154.0,1,1.0332602201703573,0.0
598,598,0.8362127454948409,0.8,0,466.0,865.0,0.0,219.0,1,0.7972159204791057,0.0
599,599,0.5810925886266829,0.6,0,444.0,720.0,0.0,266.0,1,0.58725404207476,0.0
600,600,0.35447227285703464,0.4,0,432.0,998.0,0.0,190.0,1,0.7308674737994595,0.0
601,601,-0.97250704410155,-1.0,1,430.0,665.0,1.0,195.0,1,0.8499565460331177,0.0
602,602,0.7141609743584159,0.7,0,341.0,625.0,0.0,214.0,1,1.1074346676170266,0.0
603,603,-0.6875441991006417,-0.7,1,496.0,682.0,1.0,202.0,1,0.5540718715955569,0.0
604,604,-0.3165296637851289,-0.3,1,263.0,604.0,1.0,493.0,1,0.6489016609984536,0.0
605,605,0.6235708270558795,0.6,0,355.0,962.0,0.0,173.0,1,0.9098477681369412,0.0
606,606,-0.34709422911732957,-0.3,1,302.0,867.0,1.0,401.0,1,1.2213305523641638,0.0
607,607,-0.7494972677212,-0.7,1,451.0,736.0,1.0,253.0,1,0.5076720982399834,0.0
608,608,-0.4425507800526227,-0.4,1,340.0,720.0,0.0,370.0,0,1.0707756695382942,0.0
609,609,-0.1165130465161448,-0.1,1,312.0,835.0,1.0,273.0,1,0.9569210588006459,0.0
610,610,0.9771747213648445,1.0,0,264.0,682.0,0.0,144.0,1,0.6731560736422751,0.0
611,611,-0.1807275967097981,-0.2,1,447.0,745.0,1.0,348.0,1,0.9544877670862754,0.0
612,612,-0.4553707136015308,-0.5,1,271.0,589.0,1.0,170.0,1,0.9114658413103142,0.0
613,613,-0.37722606172861983,-0.4,1,303.0,938.0,0.0,319.0,0,0.7924092836266997,0.0
614,614,-0.47887570572568827,-0.5,1,314.0,929.0,1.0,267.0,1,0.8415158210374822,0.0
615,615,0.4849178318443985,0.5,0,263.0,972.0,0.0,145.0,1,1.1801343527661048,0.0
616,616,-0.5975307790304087,-0.6,1,260.0,562.0,1.0,218.0,1,0.5695507920069861,0.0
617,617,-0.09064214583604024,-0.1,1,416.0,682.0,0.0,632.0,0,0.506235220398758,0.0
618,618,-0.018616935723446915,-0.0,1,265.0,987.0,0.0,378.0,0,0.6699783966912908,0.0
619,619,0.6730729956069343,0.7,0,486.0,662.0,0.0,142.0,1,0.792362392250323,0.0
620,620,0.6096861027591651,0.6,0,392.0,757.0,0.0,161.0,1,0.5583668303074483,0.0
621,621,-0.8949788192418824,-0.9,1,477.0,979.0,1.0,204.0,1,0.5981020413289408,0.0
622,622,0.3046709363916895,0.3,0,401.0,858.0,0.0,151.0,1,1.1772628577499034,0.0
623,623,-0.07362765619300893,-0.1,1,263.0,917.0,0.0,410.0,0,0.6082483226204625,0.0
624,624,-0.6912848417951414,-0.7,1,489.0,801.0,1.0,200.0,1,0.7775098278550401,0.0
625,625,0.2944736777221597,0.3,0,252.0,611.0,0.0,157.0,1,0.7675173367314346,0.0
626,626,-0.09217197648645592,-0.1,1,319.0,989.0,1.0,592.0,1,0.666265718611996,0.0
627,627,0.6942639647430922,0.7,0,361.0,750.0,0.0,179.0,1,0.6891505204279427,0.0
628,628,0.2897364994514897,0.3,0,321.0,650.0,0.0,189.0,1,0.7688194794402446,0.0
629,629,0.6656483829356883,0.7,0,488.0,822.0,0.0,140.0,1,1.1248606475364564,0.0
630,630,0.09590208604152206,0.1,0,447.0,782.0,0.0,231.0,1,0.7829685020661054,0.0
631,631,0.38633491630254,0.4,0,454.0,802.0,0.0,294.0,1,0.6727592921896741,0.0
632,632,-0.8038294820791649,-0.8,1,471.0,686.0,1.0,133.0,1,0.9827157715997831,0.0
633,633,0.13949792046668041,0.1,0,329.0,709.0,0.0,662.0,1,0.520987268541746,0.0
634,634,-0.583604735822886,-0.6,1,340.0,925.0,1.0,165.0,1,0.9609604167799184,0.0
635,635,0.3090169875969917,0.3,0,372.0,862.0,0.0,206.0,1,0.6621987272715546,0.0
636,636,0.7606114258318752,0.8,0,402.0,833.0,0.0,225.0,1,0.5858591072418908,0.0
637,637,0.7347325869201042,0.7,0,447.0,662.0,0.0,101.0,1,1.1071786844334883,0.0
638,638,-0.4757632077191143,-0.5,1,448.0,653.0,1.0,379.0,1,1.2233133950708588,0.0
639,639,-0.27577631732433683,-0.3,1,468.0,808.0,0.0,264.0,0,0.804816760214732,0.0
640,640,0.5704982469764714,0.6,0,299.0,996.0,0.0,235.0,1,0.9591957046213485,0.0
641,641,0.8396292331426758,0.8,0,251.0,653.0,0.0,346.0,1,0.5492122508021278,0.0
642,642,0.4488935948043189,0.4,0,464.0,614.0,0.0,232.0,1,1.1196107345323743,0.0
643,643,0.044271627025381344,0.0,0,255.0,759.0,0.0,526.0,1,0.5121602721967089,0.0
644,644,-0.4734110760104697,-0.5,1,398.0,714.0,1.0,268.0,1,0.6483477821667085,0.0
645,645,0.3300381229224134,0.3,0,378.0,696.0,0.0,166.0,1,0.8373899467174682,0.0
646,646,-0.1284835541531717,-0.1,1,402.0,853.0,1.0,275.0,1,1.1973287029919666,0.0
647,647,0.039740202168255134,0.0,0,416.0,930.0,0.0,354.0,1,0.6633797257897434,0.0
648,648,0.29467464788199615,0.3,0,472.0,556.0,0.0,162.0,1,1.2189973030620744,0.0
649,649,0.2766657172868696,0.3,0,299.0,633.0,0.0,168.0,1,1.2321123516233448,0.0
650,650,-0.6492771967197584,-0.6,1,416.0,814.0,1.0,300.0,1,0.7006090220753098,0.0
651,651,-0.1634374629800759,-0.2,1,295.0,951.0,0.0,204.0,0,1.1890873937944184,0.0
652,652,0.9314356495653338,0.9,0,481.0,886.0,0.0,123.0,1,0.6070890833942951,0.0
653,653,0.6470905622887819,0.6,0,474.0,862.0,0.0,234.0,1,0.5161603340774046,0.0
654,654,0.6604544087862263,0.7,0,409.0,594.0,0.0,257.0,1,0.5408891924057297,0.0
655,655,0.8992197661378496,0.9,0,348.0,892.0,0.0,80.0,1,1.1622259581343626,0.0
656,656,-0.17005739305424283,-0.2,1,427.0,797.0,0.0,516.0,0,0.5506068760597526,0.0
657,657,-0.766765549738414,-0.8,1,327.0,879.0,1.0,334.0,1,0.525640831392692,0.0
658,658,0.3997554967168273,0.4,0,270.0,726.0,0.0,154.0,1,0.603030584309213,0.0
659,659,0.3982976756723535,0.4,0,469.0,570.0,0.0,91.0,1,1.2105997414360288,0.0
660,660,0.7418145766822166,0.7,0,390.0,565.0,0.0,195.0,1,0.9874994846617814,0.0
661,661,0.7975502347149783,0.8,0,268.0,590.0,0.0,202.0,1,0.5454529225320726,0.0
662,662,-0.7847065885624034,-0.8,1,273.0,642.0,1.0,255.0,1,0.9514738942386892,0.0
663,663,0.9364159462378934,0.9,0,475.0,758.0,0.0,237.0,1,1.236818680987705,0.0
664,664,-0.11544505053192644,-0.1,1,434.0,990.0,0.0,296.0,0,0.7523290681771858,0.0
665,665,0.4341425608170626,0.4,0,335.0,737.0,0.0,88.0,1,0.9481502308766571,0.0
666,666,-0.9913013872044334,-1.0,1,400.0,773.0,1.0,147.0,1,1.0630336286675448,0.0
667,667,-0.3538037360744817,-0.4,1,307.0,876.0,1.0,177.0,1,1.1115684151425882,0.0
668,668,0.03110404455732274,0.0,0,446.0,872.0,0.0,212.0,1,0.6309005052975277,0.0
669,669,-0.7736290751214725,-0.8,1,498.0,788.0,1.0,284.0,1,1.0774721897510307,0.0
670,670,-0.338011692805134,-0.3,1,304.0,897.0,1.0,199.0,1,1.1675599313261167,0.0
671,671,0.09160570808143609,0.1,0,318.0,662.0,1.0,290.0,0,0.8138118514284258,0.0
672,672,0.46485865008201155,0.5,0,397.0,704.0,0.0,209.0,1,0.9980206753063886,0.0
673,673,0.3677418248264772,0.4,0,432.0,869.0,0.0,189.0,1,0.9553179018635818,0.0
674,674,-0.6873612034235899,-0.7,1,307.0,677.0,1.0,296.0,1,0.9200637448041855,0.0
675,675,-0.33353866374378427,-0.3,1,339.0,712.0,1.0,309.0,1,1.1484457041400113,0.0
676,676,0.1390181322584585,0.1,0,442.0,663.0,0.0,485.0,1,0.5514948371685886,0.0
677,677,0.33946803183362606,0.3,0,284.0,674.0,0.0,132.0,1,0.7362458662717616,0.0
678,678,0.2712946292353795,0.3,0,295.0,766.0,0.0,179.0,1,0.9984400684962557,0.0
679,679,0.5384329237066958,0.5,0,366.0,612.0,0.0,182.0,1,1.1236756524380782,0.0
680,680,0.42791034982677245,0.4,0,487.0,689.0,0.0,274.0,1,0.6815110897063639,0.0
681,681,-0.6880599713416378,-0.7,1,430.0,549.0,1.0,161.0,1,0.5871416920870474,0.0
682,682,-0.7579797079521966,-0.8,1,253.0,740.0,1.0,367.0,1,0.528114606577631,0.0
683,683,-0.3658953556522577,-0.4,1,383.0,965.0,1.0,322.0,1,0.6944107887929507,0.0
684,684,0.07598337192241278,0.1,0,414.0,682.0,0.0,364.0,1,0.8001269201763153,0.0
685,685,-0.07603713051251804,-0.1,1,277.0,607.0,0.0,336.0,0,0.6818669033812121,0.0
686,686,0.3855116396482683,0.4,0,281.0,622.0,0.0,147.0,1,0.8555584801787637,0.0
687,687,0.35958362661306476,0.4,0,439.0,862.0,0.0,239.0,1,1.0750032643208463,0.0
688,688,0.5087970127993169,0.5,0,431.0,999.0,0.0,240.0,1,1.1856635506387188,0.0
689,689,-0.24903240949185745,-0.2,1,376.0,615.0,1.0,2499.0,1,0.5381340659753147,0.0
690,690,-0.903293396342894,-0.9,1,288.0,838.0,1.0,84.0,1,0.566912529741853,0.0
691,691,0.6624997592530071,0.7,0,480.0,745.0,0.0,125.0,1,0.6694400961591858,0.0
692,692,-0.7813729129528062,-0.8,1,286.0,526.0,1.0,198.0,1,0.6956042142678851,0.0
693,693,0.06524413704651466,0.1,0,398.0,565.0,0.0,267.0,1,1.0936317846269785,0.0
694,694,-0.3913514667352287,-0.4,1,447.0,666.0,1.0,267.0,1,0.9454677692575151,0.0
695,695,0.6667568900894509,0.7,0,271.0,864.0,0.0,145.0,1,1.1890463212235098,0.0
696,696,-0.44964453187900366,-0.4,1,417.0,528.0,1.0,185.0,1,1.0856254144311133,0.0
697,697,0.2671527343291289,0.3,0,380.0,837.0,0.0,243.0,1,1.1394216648716602,0.0
698,698,0.7794174560905904,0.8,0,441.0,599.0,0.0,140.0,1,1.0010065677213205,0.0
699,699,0.5061017653822955,0.5,0,412.0,645.0,0.0,183.0,1,0.5374631165752783,0.0
700,700,-0.18258055856823918,-0.2,1,438.0,571.0,1.0,631.0,1,0.5526658355937151,0.0
701,701,-0.07560699551987016,-0.1,1,366.0,814.0,0.0,220.0,0,0.5715627454290076,0.0
702,702,-0.4845495166322795,-0.5,1,410.0,537.0,1.0,263.0,1,0.5554054374996178,0.0
703,703,0.4066671059460738,0.4,0,456.0,578.0,0.0,116.0,1,1.2253705796688226,0.0
704,704,0.6828854228005097,0.7,0,423.0,636.0,0.0,111.0,1,0.8709014651443145,0.0
705,705,-0.8799199627769407,-0.9,1,441.0,560.0,1.0,179.0,1,0.547705931382058,0.0
706,706,0.2072577526367374,0.2,0,435.0,638.0,0.0,177.0,1,0.9807246606525235,0.0
707,707,0.9985004666384751,1.0,0,375.0,717.0,0.0,118.0,1,0.7843162511019925,0.0
708,708,-0.7632575948080582,-0.8,1,419.0,655.0,1.0,116.0,1,0.7603530789868204,0.0
709,709,-0.4674475026518521,-0.5,1,282.0,696.0,1.0,322.0,1,0.6437192851774494,0.0
710,710,-0.8592975331444015,-0.9,1,498.0,636.0,1.0,106.0,1,0.9179334711542119,0.0
711,711,0.3504032390427647,0.4,0,314.0,625.0,0.0,231.0,1,0.974005607650988,0.0
712,712,-0.37204501691243874,-0.4,1,393.0,871.0,1.0,336.0,1,0.8849915613573874,0.0
713,713,-0.9509859937668639,-1.0,1,401.0,790.0,1.0,189.0,1,0.8813846700939992,0.0
714,714,0.1695903164150847,0.2,0,493.0,945.0,0.0,472.0,1,0.5446362172600083,0.0
715,715,0.7335539437626726,0.7,0,395.0,732.0,0.0,213.0,1,1.1019343117337916,0.0
716,716,-0.95649012024996,-1.0,1,474.0,567.0,1.0,199.0,1,0.7504156722558529,0.0
717,717,-0.7129580444037154,-0.7,1,283.0,629.0,1.0,248.0,1,1.1817472700413203,0.0
718,718,-0.5049006102759444,-0.5,1,318.0,758.0,1.0,204.0,1,0.9901210214758918,0.0
719,719,-0.2835835602415351,-0.3,1,324.0,824.0,1.0,322.0,1,0.9022028710281427,0.0
720,720,0.10243310169720776,0.1,0,255.0,544.0,0.0,81.0,1,1.1921215321853833,0.0
721,721,-0.5049650020593415,-0.5,1,312.0,844.0,1.0,254.0,1,0.67073776340103,0.0
722,722,-0.6997049077942099,-0.7,1,488.0,911.0,1.0,191.0,1,0.7531716464563667,0.0
723,723,-0.9856334887647995,-1.0,1,271.0,681.0,1.0,158.0,1,0.7589497969328088,0.0
724,724,-0.16040117987736324,-0.2,1,258.0,824.0,0.0,418.0,0,1.1763456268745807,0.0
725,725,-0.3519153266576269,-0.4,1,441.0,565.0,1.0,494.0,1,0.9787476105068784,0.0
726,726,-0.21058119697062838,-0.2,1,341.0,918.0,1.0,161.0,1,0.9403731940228679,0.0
727,727,-0.4627210693049386,-0.5,1,378.0,986.0,1.0,116.0,1,1.0918463760756123,0.0
728,728,-0.2508636390867087,-0.3,1,307.0,731.0,0.0,532.0,0,1.1752735185795102,0.0
729,729,-0.8879294664672186,-0.9,1,383.0,816.0,1.0,151.0,1,0.996371070507208,0.0
730,730,-0.39148210144025253,-0.4,1,256.0,784.0,1.0,660.0,1,0.634485940920515,0.0
731,731,0.6965964185427878,0.7,0,478.0,872.0,0.0,210.0,1,0.5598055156595072,0.0
732,732,-0.33858279493343835,-0.3,1,359.0,573.0,1.0,348.0,1,1.085033722261774,0.0
733,733,-0.4611618205933554,-0.5,1,264.0,865.0,1.0,131.0,1,0.6309755406282551,0.0
734,734,0.37853768561791146,0.4,0,281.0,518.0,0.0,241.0,1,1.1149139240421442,0.0
735,735,0.717426164000682,0.7,0,273.0,811.0,0.0,136.0,1,0.9498815589989373,0.0
736,736,0.19842195234118276,0.2,0,334.0,712.0,0.0,194.0,1,1.1095983610464515,0.0
737,737,-0.8317390419356745,-0.8,1,283.0,557.0,1.0,280.0,1,0.6546476736252813,0.0
738,738,-0.8566350006545294,-0.9,1,428.0,662.0,1.0,270.0,1,1.138545816161789,0.0
739,739,0.6548866632674508,0.7,0,396.0,822.0,0.0,232.0,1,0.5524339885531022,0.0
740,740,-0.3534348513174612,-0.4,1,431.0,904.0,1.0,245.0,1,1.1310842584311627,0.0
741,741,0.30121853753957106,0.3,0,278.0,576.0,0.0,196.0,1,0.8807178346273282,0.0
742,742,-0.2998150826300192,-0.3,1,494.0,784.0,1.0,262.0,1,1.1390562031344658,0.0
743,743,-0.8092443796803717,-0.8,1,308.0,865.0,1.0,177.0,1,0.6644007110664452,0.0
744,744,-0.18045402101520658,-0.2,1,454.0,658.0,1.0,788.0,1,0.9627137753176074,0.0
745,745,0.8881002020936384,0.9,0,490.0,706.0,0.0,134.0,1,0.7990001521066242,0.0
746,746,-0.5149254094754552,-0.5,1,309.0,926.0,1.0,345.0,1,0.682496872134963,0.0
747,747,0.19825429528459404,0.2,0,483.0,884.0,0.0,363.0,1,1.0706248814155854,0.0
748,748,0.7765645252276596,0.8,0,271.0,712.0,0.0,177.0,1,0.5603073281043185,0.0
749,749,0.3458512988359308,0.3,0,307.0,546.0,0.0,427.0,1,0.5753835598442658,0.0
750,750,-0.5089948984424641,-0.5,1,385.0,535.0,1.0,320.0,1,0.8236918467778751,0.0
751,751,-0.6936592465159879,-0.7,1,384.0,510.0,1.0,236.0,1,1.0859107017560243,0.0
752,752,-0.7975880508280329,-0.8,1,377.0,709.0,1.0,174.0,1,0.6564176933517327,0.0
753,753,0.6145219381017715,0.6,0,416.0,770.0,0.0,164.0,1,0.6080235508309397,0.0
754,754,0.45935245380663514,0.5,0,362.0,616.0,0.0,202.0,1,1.064567189677844,0.0
755,755,0.9567854490377921,1.0,0,377.0,605.0,0.0,108.0,1,0.9802150584028922,0.0
756,756,-0.8070466376496417,-0.8,1,424.0,600.0,1.0,136.0,1,1.1290867694734694,0.0
757,757,0.802446352356917,0.8,0,478.0,669.0,0.0,113.0,1,0.936258030917635,0.0
758,758,-0.2218450072457403,-0.2,1,369.0,932.0,1.0,289.0,1,1.1783948467368424,0.0
759,759,-0.5097337323229714,-0.5,1,284.0,765.0,1.0,261.0,1,1.2280632485015612,0.0
760,760,-0.25978899199174643,-0.3,1,494.0,797.0,1.0,489.0,1,0.6661212092413041,0.0
761,761,-0.9797408008022523,-1.0,1,336.0,741.0,1.0,263.0,1,1.1896388642247253,0.0
762,762,0.529789263261701,0.5,0,351.0,620.0,0.0,169.0,1,0.8818776178953898,0.0
763,763,0.2937396721205914,0.3,0,358.0,606.0,0.0,226.0,1,1.131181548580859,0.0
764,764,0.16793457494397535,0.2,0,297.0,915.0,0.0,268.0,1,1.1261355320217983,0.0
765,765,0.8394453252083764,0.8,0,337.0,876.0,0.0,217.0,1,0.528491797442175,0.0
766,766,0.42732616935603573,0.4,0,262.0,557.0,0.0,191.0,1,0.9810838688545768,0.0
767,767,-0.08487743532537961,-0.1,1,497.0,646.0,0.0,307.0,0,0.9460675406494798,0.0
768,768,0.5748572908463923,0.6,0,310.0,765.0,0.0,-165.0,1,1.2352394971811465,0.0
769,769,-0.898984400087302,-0.9,1,320.0,728.0,1.0,322.0,1,0.6426454138303923,0.0
770,770,0.45391281691022245,0.5,0,328.0,557.0,0.0,125.0,1,0.756942702202776,0.0
771,771,0.06906159661230249,0.1,0,300.0,829.0,0.0,131.0,1,1.1630776479143157,0.0
772,772,0.06114554780878367,0.1,0,331.0,601.0,1.0,198.0,0,0.5659306486859241,0.0
773,773,-0.33542661729049383,-0.3,1,267.0,894.0,1.0,309.0,1,1.2068629103209578,0.0
774,774,0.656957720870385,0.7,0,329.0,928.0,0.0,153.0,1,0.8832680655181503,0.0
775,775,0.9892049214168326,1.0,0,473.0,810.0,0.0,77.0,1,1.2192178657684125,0.0
776,776,-0.278193286429663,-0.3,1,456.0,814.0,1.0,190.0,1,1.1828380246243504,0.0
777,777,-0.14322298182870496,-0.1,1,387.0,937.0,1.0,426.0,1,1.0214940629631437,0.0
778,778,0.05141998512099799,0.1,0,364.0,672.0,0.0,314.0,1,1.156592329651922,0.0
779,779,0.4753085675899307,0.5,0,275.0,937.0,0.0,168.0,1,1.1966343445463636,0.0
780,780,-0.2692771387646862,-0.3,1,420.0,703.0,1.0,257.0,1,1.1379102418864173,0.0
781,781,-0.20401011596307916,-0.2,1,408.0,508.0,1.0,214.0,1,1.2049143489284255,0.0
782,782,-0.5532604055371384,-0.6,1,386.0,597.0,1.0,217.0,1,1.1946005159382622,0.0
783,783,0.2857231911287579,0.3,0,274.0,957.0,0.0,379.0,1,0.5416518230012756,0.0
784,784,-0.44419773577665866,-0.4,1,468.0,993.0,1.0,319.0,1,0.959626228269194,0.0
785,785,0.5784847577665702,0.6,0,351.0,725.0,0.0,124.0,1,0.9250466901903867,0.0
786,786,0.6124118380609715,0.6,0,347.0,898.0,0.0,195.0,1,1.1203867358599346,0.0
787,787,0.33070712400104085,0.3,0,250.0,538.0,0.0,202.0,1,0.6180214215391044,0.0
788,788,0.7830504737528095,0.8,0,302.0,542.0,0.0,176.0,1,0.658017339092084,0.0
789,789,0.5853461532851052,0.6,0,447.0,809.0,0.0,134.0,1,0.9525923904039696,0.0
790,790,-0.3276128455749172,-0.3,1,372.0,710.0,1.0,378.0,1,1.132361950460416,0.0
791,791,-0.18007064701079978,-0.2,1,306.0,889.0,0.0,185.0,0,0.9788035345564374,0.0
792,792,-0.30936631485267396,-0.3,1,283.0,550.0,0.0,297.0,0,0.9930493196140313,0.0
793,793,-0.12918444824860686,-0.1,1,347.0,958.0,1.0,385.0,1,1.1666721951354466,0.0
794,794,-0.9215687006504001,-0.9,1,487.0,894.0,1.0,149.0,1,0.6798482039867788,0.0
795,795,-0.8552990920625034,-0.9,1,362.0,629.0,1.0,219.0,1,0.5545881449447464,0.0
796,796,0.9001903006270753,0.9,0,448.0,661.0,0.0,161.0,1,0.8326957434360928,0.0
797,797,-0.09646938844512043,-0.1,1,370.0,613.0,1.0,467.0,1,1.0516871570916329,0.0
798,798,0.269887969176305,0.3,0,404.0,779.0,0.0,347.0,1,0.7572156584503769,0.0
799,799,-0.1853347142299151,-0.2,1,342.0,825.0,1.0,263.0,1,0.8356733456720667,0.0
800,800,-0.5339890045220566,-0.5,1,424.0,786.0,1.0,290.0,1,0.7110945287961106,0.0
801,801,0.013062429775335671,0.0,0,285.0,759.0,0.0,176.0,1,1.0269159675929087,0.0
802,802,0.12171423296040196,0.1,0,379.0,811.0,0.0,240.0,1,1.0011093999438228,0.0
803,803,0.05132686764950378,0.1,0,287.0,818.0,0.0,295.0,1,0.8690752047269557,0.0
804,804,-0.04101730450733365,-0.0,1,300.0,944.0,1.0,356.0,1,1.121501260857477,0.0
805,805,0.34022190873705527,0.3,0,430.0,932.0,0.0,488.0,1,0.5251308422600174,0.0
806,806,-0.4598419477894564,-0.5,1,278.0,547.0,1.0,305.0,1,1.0723643757469623,0.0
807,807,0.7524462081483465,0.8,0,401.0,561.0,0.0,138.0,1,1.1128193151968464,0.0
808,808,0.5413670351461604,0.5,0,457.0,644.0,0.0,159.0,1,1.1862301231876735,0.0
809,809,-0.6931058784454556,-0.7,1,254.0,809.0,1.0,267.0,1,0.835486139188896,0.0
810,810,0.0092829678152766,0.0,0,337.0,514.0,0.0,209.0,1,1.1363622827891886,0.0
811,811,-0.15451584170236243,-0.2,1,485.0,818.0,0.0,297.0,0,1.0107238718250622,0.0
812,812,0.1229008085490697,0.1,0,339.0,980.0,0.0,671.0,1,1.212554089189113,0.0
813,813,-0.5904323184649329,-0.6,1,363.0,880.0,1.0,427.0,1,0.6543125043337119,0.0
814,814,-0.9223887890862683,-0.9,1,399.0,923.0,1.0,258.0,1,1.09051840137065,0.0
815,815,0.9505782203935824,1.0,0,418.0,821.0,0.0,111.0,1,1.1356782763355606,0.0
816,816,-0.42465322248030324,-0.4,1,259.0,665.0,1.0,166.0,1,0.6537150341981288,0.0
817,817,0.06703436950726815,0.1,0,403.0,665.0,0.0,292.0,1,0.8724685618784738,0.0
818,818,-0.7711149432622308,-0.8,1,400.0,775.0,1.0,225.0,1,1.0381857741203149,0.0
819,819,0.35505315585193475,0.4,0,409.0,584.0,0.0,107.0,1,0.8277193814264899,0.0
820,820,-0.2419624693385487,-0.2,1,386.0,995.0,1.0,359.0,1,1.056083095045472,0.0
821,821,-0.8883307871289594,-0.9,1,485.0,987.0,1.0,298.0,1,0.5022725160949457,0.0
822,822,-0.3272445727948492,-0.3,1,414.0,534.0,1.0,472.0,1,1.0885955975123691,0.0
823,823,-0.20133561609086037,-0.2,1,342.0,500.0,1.0,438.0,1,1.1786946408508938,0.0
824,824,-0.5984887376507773,-0.6,1,398.0,551.0,1.0,341.0,1,0.971773974448709,0.0
825,825,0.00012440666175472792,0.0,0,409.0,853.0,0.0,478.0,1,0.5468698629616704,0.0
826,826,-0.6905358285904435,-0.7,1,434.0,598.0,1.0,198.0,1,0.9120992087474831,0.0
827,827,-0.42533820819556745,-0.4,1,424.0,542.0,1.0,284.0,1,1.2145419838514637,0.0
828,828,0.9346325099516806,0.9,0,370.0,674.0,0.0,106.0,1,0.6106374680972346,0.0
829,829,0.7511623526524129,0.8,0,271.0,624.0,0.0,235.0,1,0.5949881371732437,0.0
830,830,-0.032058974039458565,-0.0,1,432.0,546.0,0.0,372.0,0,0.8149817589818279,0.0
831,831,-0.7017826681360901,-0.7,1,255.0,758.0,1.0,207.0,1,0.6699082552837766,0.0
832,832,-0.039669205692889564,-0.0,1,275.0,779.0,0.0,456.0,0,0.8708366636240336,0.0
833,833,-0.7900258989981572,-0.8,1,253.0,686.0,1.0,181.0,1,0.9436511173842588,0.0
834,834,0.8756546028539882,0.9,0,308.0,667.0,0.0,195.0,1,0.7048453868040467,0.0
835,835,0.41789527499822365,0.4,0,446.0,561.0,0.0,363.0,1,0.553727738647351,0.0
836,836,0.24135095760165548,0.2,0,362.0,646.0,0.0,292.0,1,0.655733155957477,0.0
837,837,0.08975285216424078,0.1,0,349.0,547.0,0.0,374.0,1,0.540163447730066,0.0
838,838,0.03236436339578086,0.0,0,274.0,505.0,0.0,231.0,1,1.1565176148923255,0.0
839,839,0.2951547717917984,0.3,0,299.0,575.0,0.0,316.0,1,1.1351773260569076,0.0
840,840,0.5713773799781214,0.6,0,466.0,659.0,0.0,135.0,1,1.2468270489574018,0.0
841,841,-0.005674991573842103,-0.0,1,438.0,972.0,1.0,270.0,1,1.225903181700111,0.0
842,842,0.14470055492752465,0.1,0,310.0,563.0,0.0,477.0,1,1.0070876722083928,0.0
843,843,0.6648229834010937,0.7,0,374.0,917.0,0.0,139.0,1,1.2039181102485998,0.0
844,844,-0.027800532718035287,-0.0,1,364.0,504.0,0.0,202.0,0,0.8199821381146923,0.0
845,845,0.8478876038308583,0.8,0,458.0,832.0,0.0,310.0,1,0.5364260061363668,0.0
846,846,0.25770156215721407,0.3,0,257.0,820.0,0.0,183.0,1,0.9186087129958513,0.0
847,847,0.8885257182386761,0.9,0,321.0,941.0,0.0,118.0,1,0.9388067032349854,0.0
848,848,0.9686401666606772,1.0,0,335.0,984.0,0.0,151.0,1,0.7667772632573508,0.0
849,849,-0.1286321416656786,-0.1,1,479.0,954.0,1.0,447.0,1,1.0860861042120022,0.0
850,850,0.8959202780152653,0.9,0,257.0,752.0,0.0,121.0,1,0.7237276731128948,0.0
851,851,-0.05010345764709245,-0.1,1,263.0,844.0,1.0,363.0,1,0.9320909149225067,0.0
852,852,0.4112721154628325,0.4,0,484.0,741.0,0.0,155.0,1,0.7419402312925226,0.0
853,853,-0.11821374666764806,-0.1,1,443.0,528.0,0.0,219.0,0,0.950269039982258,0.0
854,854,-0.5208595152499533,-0.5,1,379.0,617.0,1.0,194.0,1,0.5653921130284174,0.0
855,855,0.6628510730387391,0.7,0,276.0,882.0,0.0,162.0,1,0.9677436853225221,0.0
856,856,0.38812854638267025,0.4,0,359.0,988.0,0.0,203.0,1,0.9596474726684581,0.0
857,857,-0.9519443980159368,-1.0,1,258.0,704.0,1.0,138.0,1,0.9932075774051913,0.0
858,858,-0.4867914145992609,-0.5,1,467.0,558.0,1.0,215.0,1,0.8926937031809561,0.0
859,859,0.34889049495629476,0.3,0,428.0,794.0,0.0,278.0,1,1.2147113174321862,0.0
860,860,0.3706657834601441,0.4,0,337.0,898.0,0.0,235.0,1,0.6571461380794186,0.0
861,861,0.09359123108366307,0.1,0,421.0,901.0,0.0,248.0,1,1.2121296683721798,0.0
862,862,-0.4787613559767574,-0.5,1,478.0,581.0,1.0,321.0,1,0.6015911267074805,0.0
863,863,-0.7902635666678592,-0.8,1,370.0,904.0,1.0,356.0,1,1.1564246854486513,0.0
864,864,-0.524520392121171,-0.5,1,392.0,895.0,1.0,173.0,1,0.656627330219492,0.0
865,865,-0.12820583696725718,-0.1,1,301.0,665.0,1.0,274.0,1,1.0236747417129748,0.0
866,866,-0.02361816140262496,-0.0,1,300.0,751.0,1.0,189.0,1,1.0825396498648616,0.0
867,867,-0.4179055649214618,-0.4,1,474.0,739.0,0.0,347.0,0,1.1175750845092922,0.0
868,868,-0.852457647922845,-0.9,1,308.0,701.0,1.0,181.0,1,1.1649071124140202,0.0
869,869,-0.6115827510978407,-0.6,1,275.0,820.0,1.0,145.0,1,1.1958972179165634,0.0
870,870,0.8719344099488437,0.9,0,380.0,992.0,0.0,148.0,1,0.829524645123105,0.0
871,871,0.5233914174507541,0.5,0,302.0,852.0,0.0,256.0,1,0.673438596732572,0.0
872,872,0.7980017074264876,0.8,0,391.0,533.0,0.0,216.0,1,0.5723962394697499,0.0
873,873,-0.3059838116722431,-0.3,1,434.0,552.0,1.0,244.0,1,0.7291540952535351,0.0
874,874,0.3453506155398294,0.3,0,446.0,795.0,0.0,229.0,1,0.9077910292744091,0.0
875,875,-0.7396239204176025,-0.7,1,438.0,859.0,1.0,133.0,1,0.5860785702244722,0.0
876,876,0.058074431913035296,0.1,0,285.0,801.0,0.0,334.0,1,0.6815744618872862,0.0
877,877,0.6179855731382673,0.6,0,440.0,849.0,0.0,201.0,1,0.6892260713230218,0.0
878,878,0.7766694237672809,0.8,0,350.0,951.0,0.0,189.0,1,0.5918570413438659,0.0
879,879,0.5582588205469652,0.6,0,380.0,755.0,0.0,95.0,1,0.9297633089516275,0.0
880,880,-0.9457892491884152,-0.9,1,422.0,964.0,1.0,264.0,1,1.2329411192659285,0.0
881,881,0.28784859289887854,0.3,0,324.0,690.0,0.0,236.0,1,0.7870651200497156,0.0
882,882,0.915572905917627,0.9,0,388.0,541.0,0.0,181.0,1,0.6690303885462892,0.0
883,883,0.10645122652886663,0.1,0,397.0,810.0,0.0,243.0,1,1.1930116456729187,0.0
884,884,0.3408971605198867,0.3,0,427.0,958.0,0.0,275.0,1,0.9351126167151464,0.0
885,885,-0.6890105298553446,-0.7,1,339.0,934.0,1.0,147.0,1,0.7231465887906573,0.0
886,886,-0.5501751307075333,-0.6,1,409.0,710.0,1.0,521.0,1,1.1658032418941233,0.0
887,887,0.5884330978288752,0.6,0,347.0,521.0,0.0,172.0,1,0.5478025295003821,0.0
888,888,-0.30398996454841765,-0.3,1,357.0,758.0,1.0,315.0,1,0.8959642246294237,0.0
889,889,0.0557298979999985,0.1,0,327.0,774.0,1.0,209.0,0,0.9387253164761319,0.0
890,890,-0.3696711554527097,-0.4,1,466.0,560.0,1.0,234.0,1,0.7786531293846934,0.0
891,891,-0.48194898417025445,-0.5,1,297.0,902.0,1.0,201.0,1,0.7741039334602138,0.0
892,892,0.03602066535876847,0.0,0,297.0,966.0,0.0,487.0,1,0.6850298811447073,0.0
893,893,0.32696396060658417,0.3,0,336.0,974.0,0.0,220.0,1,0.8080834541514782,0.0
894,894,0.7103081077473485,0.7,0,369.0,506.0,0.0,145.0,1,1.1136406562460268,0.0
895,895,-0.23819528577600524,-0.2,1,344.0,607.0,1.0,369.0,1,1.1710626921333616,0.0
896,896,0.8037119018816608,0.8,0,308.0,578.0,0.0,124.0,1,1.1090993239945757,0.0
897,897,-0.22335395697793525,-0.2,1,359.0,553.0,1.0,358.0,1,0.9318576169418945,0.0
898,898,-0.8478941707351191,-0.8,1,400.0,501.0,1.0,179.0,1,1.224263525221979,0.0
899,899,0.2065996858689405,0.2,0,363.0,738.0,0.0,109.0,1,0.7652596039242765,0.0
900,900,-0.36255009799271676,-0.4,1,439.0,839.0,1.0,182.0,1,1.2042906345248232,0.0
901,901,0.27675072226832875,0.3,0,463.0,706.0,0.0,201.0,1,0.6814293128168032,0.0
902,902,0.5079409770135208,0.5,0,424.0,841.0,0.0,265.0,1,0.7906988458872364,0.0
903,903,-0.27501496965042493,-0.3,1,461.0,603.0,1.0,366.0,1,0.6113765874419912,0.0
904,904,-0.5906308574203196,-0.6,1,316.0,632.0,1.0,232.0,1,0.9216187294625269,0.0
905,905,0.11396143239421508,0.1,0,437.0,522.0,1.0,271.0,0,0.9529820745778638,0.0
906,906,-0.33745625495423415,-0.3,1,317.0,945.0,1.0,548.0,1,0.6396982296947604,0.0
907,907,-0.2868841083580629,-0.3,1,366.0,892.0,0.0,132.0,0,1.1584613725168524,0.0
908,908,0.8673026618663273,0.9,0,257.0,986.0,0.0,177.0,1,1.1662962037416653,0.0
909,909,-0.8213805353476451,-0.8,1,343.0,780.0,1.0,137.0,1,0.9141262728503303,0.0
910,910,-0.8106707418667067,-0.8,1,435.0,835.0,1.0,190.0,1,1.0834910598684901,0.0
911,911,0.01891290080475705,0.0,0,413.0,609.0,0.0,188.0,1,1.0151577088571244,0.0
912,912,0.4596725077540098,0.5,0,253.0,650.0,0.0,217.0,1,0.8789018807791078,0.0
913,913,-0.48994384998831286,-0.5,1,418.0,671.0,1.0,171.0,1,0.9215773119582862,0.0
914,914,-0.9132231795349133,-0.9,1,406.0,977.0,1.0,217.0,1,1.1804011427367538,0.0
915,915,0.6099969662305162,0.6,0,267.0,874.0,0.0,149.0,1,1.1233968648793669,0.0
916,916,0.7587819719061097,0.8,0,275.0,793.0,0.0,162.0,1,1.0313805481499663,0.0
917,917,0.5322365864188938,0.5,0,295.0,628.0,0.0,197.0,1,0.818283114207403,0.0
918,918,-0.10447706580362781,-0.1,1,340.0,504.0,0.0,396.0,0,1.1586592510189482,0.0
919,919,-0.011192043404176788,-0.0,1,421.0,530.0,0.0,769.0,0,0.8156173498442343,0.0
920,920,0.6782737207319529,0.7,0,294.0,854.0,0.0,202.0,1,1.0681853957937126,0.0
921,921,-0.8335829630844787,-0.8,1,488.0,958.0,1.0,144.0,1,0.8706354650924464,0.0
922,922,-0.9500288853827881,-1.0,1,371.0,966.0,1.0,143.0,1,0.9674792184294276,0.0
923,923,0.2415516317145172,0.2,0,412.0,809.0,0.0,149.0,1,1.0458400203321454,0.0
924,924,-0.04413718307316761,-0.0,1,271.0,951.0,0.0,568.0,0,0.8349580380905224,0.0
925,925,-0.8666618054013173,-0.9,1,317.0,843.0,1.0,190.0,1,0.9992843827346528,0.0
926,926,0.9027950500083914,0.9,0,485.0,669.0,0.0,136.0,1,0.8131087544207893,0.0
927,927,-0.8398124074856896,-0.8,1,292.0,903.0,1.0,245.0,1,0.6045549555877721,0.0
928,928,-0.4325938653483199,-0.4,1,328.0,893.0,1.0,359.0,1,0.5534876791181729,0.0
929,929,-0.9370437063050725,-0.9,1,400.0,932.0,1.0,178.0,1,0.5312170963047165,0.0
930,930,0.9605359830577855,1.0,0,296.0,853.0,0.0,71.0,1,0.5833886197232979,0.0
931,931,0.5195648174461931,0.5,0,256.0,520.0,0.0,264.0,1,1.2168203082398774,0.0
932,932,-0.2213532047095148,-0.2,1,436.0,607.0,1.0,387.0,1,0.9557391680608156,0.0
933,933,0.37177690698776455,0.4,0,291.0,711.0,0.0,158.0,1,1.0440579254821485,0.0
934,934,0.34123970333862363,0.3,0,384.0,670.0,0.0,176.0,1,0.7472538589779532,0.0
935,935,-0.4147840709939814,-0.4,1,294.0,862.0,1.0,244.0,1,1.0661139232984975,0.0
936,936,0.5282602027073449,0.5,0,297.0,609.0,0.0,164.0,1,0.6876920199761372,0.0
937,937,0.59111253507824,0.6,0,471.0,717.0,0.0,152.0,1,0.5009990340322696,0.0
938,938,0.14110333945373843,0.1,0,273.0,865.0,0.0,602.0,1,0.5211978767297855,0.0
939,939,0.2607018904873968,0.3,0,340.0,599.0,0.0,231.0,1,0.5538872821384038,0.0
940,940,-0.8851571041234914,-0.9,1,399.0,784.0,1.0,177.0,1,0.820735275799616,0.0
941,941,0.1778833205106216,0.2,0,400.0,937.0,0.0,183.0,1,0.9959636710030171,0.0
942,942,0.6074396966590232,0.6,0,275.0,954.0,0.0,211.0,1,0.523329612946452,0.0
943,943,-0.1614034479408062,-0.2,1,481.0,616.0,1.0,283.0,1,0.8509671532043646,0.0
944,944,-0.6013166751758108,-0.6,1,404.0,964.0,1.0,252.0,1,0.6145510951177348,0.0
945,945,-0.8466534277808577,-0.8,1,327.0,680.0,1.0,183.0,1,0.5604615647029523,0.0
946,946,-0.3203794860724558,-0.3,1,401.0,674.0,1.0,385.0,1,1.059654394838344,0.0
947,947,-0.8273242241843923,-0.8,1,382.0,753.0,0.0,-35.0,0,0.8910999740137513,0.0
948,948,0.6359562622930501,0.6,0,490.0,780.0,0.0,120.0,1,0.9995987740777188,0.0
949,949,0.4508801280491077,0.5,0,436.0,981.0,0.0,293.0,1,1.233827103088122,0.0
950,950,-0.6179786301427537,-0.6,1,437.0,667.0,1.0,166.0,1,0.8759356396270217,0.0
951,951,-0.9601713456416441,-1.0,1,356.0,541.0,1.0,383.0,1,1.226641816764282,0.0
952,952,0.47842235491313967,0.5,0,395.0,803.0,0.0,162.0,1,0.8676732465506533,0.0
953,953,0.48159877059749934,0.5,0,251.0,813.0,0.0,126.0,1,1.1611136206716273,0.0
954,954,-0.8633932646484177,-0.9,1,380.0,889.0,1.0,331.0,1,0.5026988125596196,0.0
955,955,0.9948377204118553,1.0,0,356.0,742.0,0.0,182.0,1,0.5979044782116574,0.0
956,956,0.9714497339007329,1.0,0,342.0,803.0,0.0,175.0,1,0.5496072629031664,0.0
957,957,0.2827823918317409,0.3,0,373.0,545.0,0.0,172.0,1,0.7515808446638661,0.0
958,958,-0.9681916993682096,-1.0,1,378.0,910.0,1.0,282.0,1,0.78125506821354,0.0
959,959,-0.1726541039336802,-0.2,1,279.0,802.0,0.0,299.0,0,0.8051445733635287,0.0
960,960,-0.6522327095005691,-0.7,1,381.0,694.0,1.0,215.0,1,0.533871210348165,0.0
961,961,-0.5997103498019942,-0.6,1,362.0,625.0,1.0,163.0,1,0.7572062506874526,0.0
962,962,0.9368436399891991,0.9,0,409.0,861.0,0.0,150.0,1,0.9272748048307905,0.0
963,963,-0.27257226815851343,-0.3,1,497.0,742.0,0.0,481.0,0,0.7268709806393364,0.0
964,964,0.011376723501212327,0.0,0,367.0,864.0,0.0,159.0,1,1.2027662589300987,0.0
965,965,0.599062911926092,0.6,0,493.0,694.0,0.0,143.0,1,0.8980473579237654,0.0
966,966,0.9242483594298205,0.9,0,499.0,875.0,0.0,216.0,1,0.5931795995870021,0.0
967,967,0.8344740804972091,0.8,0,427.0,943.0,0.0,130.0,1,0.7380131627187736,0.0
968,968,-0.30991790918492534,-0.3,1,446.0,717.0,1.0,897.0,1,0.6000258363831008,0.0
969,969,0.19729086203404123,0.2,0,466.0,610.0,0.0,504.0,1,0.5032225430196577,0.0
970,970,0.4094300380689673,0.4,0,343.0,663.0,0.0,234.0,1,1.2340563060202507,0.0
971,971,-0.7784321463645567,-0.8,1,301.0,828.0,1.0,161.0,1,0.9367987034215268,0.0
972,972,0.08836791265584298,0.1,0,431.0,785.0,1.0,404.0,0,0.8639151433755253,0.0
973,973,0.14531086263474013,0.1,0,352.0,875.0,0.0,133.0,1,1.2465131293273963,0.0
974,974,0.23153436493108925,0.2,0,301.0,538.0,0.0,211.0,1,0.9577187382925911,0.0
975,975,-0.3111151503514471,-0.3,1,397.0,640.0,1.0,373.0,1,1.1147506616936873,0.0
976,976,-0.05872199803115019,-0.1,1,494.0,992.0,1.0,644.0,1,1.243506912136413,0.0
977,977,-0.2421510085033911,-0.2,1,368.0,696.0,1.0,246.0,1,0.9192527825084749,0.0
978,978,0.5213541601043381,0.5,0,402.0,654.0,0.0,224.0,1,1.1174635590551445,0.0
979,979,-0.8109041820008445,-0.8,1,356.0,878.0,1.0,226.0,1,1.017349932714604,0.0
980,980,0.7487961235826905,0.7,0,340.0,622.0,0.0,128.0,1,0.8469806490134997,0.0
981,981,-0.029581041566673516,-0.0,1,372.0,841.0,0.0,787.0,0,0.586740129290777,0.0
982,982,0.4529415176012215,0.5,0,362.0,582.0,0.0,116.0,1,0.9505515820950707,0.0
983,983,-0.06098010237280649,-0.1,1,292.0,666.0,1.0,232.0,1,1.0242307854563801,0.0
984,984,0.052509383096732254,0.1,0,252.0,608.0,0.0,300.0,1,1.0505187827913134,0.0
985,985,-0.681844045098499,-0.7,1,294.0,670.0,1.0,226.0,1,1.1968238623544625,0.0
986,986,-0.3801877137471119,-0.4,1,417.0,729.0,1.0,234.0,1,1.1722717721235558,0.0
987,987,0.7738527030513795,0.8,0,475.0,652.0,0.0,33.0,1,1.2410076287763454,0.0
988,988,-0.49490527234698645,-0.5,1,390.0,573.0,1.0,217.0,1,1.2203055970714627,0.0
989,989,-0.6949985098674065,-0.7,1,495.0,932.0,1.0,173.0,1,1.0062752602074752,0.0
990,990,-0.8197777325369102,-0.8,1,265.0,642.0,1.0,263.0,1,0.7543060693191607,0.0
991,991,0.9566589972554218,1.0,0,303.0,781.0,0.0,126.0,1,0.9203274300955229,0.0
992,992,0.9677829953057269,1.0,0,399.0,692.0,0.0,219.0,1,0.5432252620129483,0.0
993,993,-0.1108166773007011,-0.1,1,388.0,535.0,0.0,397.0,0,0.5395868944977987,0.0
994,994,-0.38594125730930884,-0.4,1,487.0,829.0,1.0,1504.0,1,0.5144361808152711,0.0
995,995,-0.6781710324328869,-0.7,1,315.0,826.0,1.0,249.0,1,1.2234168685173843,0.0
996,996,0.35148031230444543,0.4,0,330.0,762.0,0.0,198.0,1,1.1974771594161775,0.0
997,997,0.2607518750437692,0.3,0,382.0,871.0,0.0,97.0,1,0.9686925679895566,0.0
998,998,-0.8863251305827047,-0.9,1,436.0,614.0,1.0,170.0,1,0.650902458786107,0.0
999,999,-0.8885787581591647,-0.9,1,292.0,610.0,1.0,218.0,1,0.7390462006737468,0.0
1000,1000,0.3997115907384363,0.4,0,406.0,537.0,0.0,97.0,1,1.1469529876877618,0.0
1001,1001,-0.878221867905373,-0.9,1,377.0,980.0,1.0,253.0,1,1.1874799211885179,0.0
1002,1002,0.980747864943899,1.0,0,256.0,707.0,0.0,217.0,1,0.8614863311718554,0.0
1003,1003,0.31657197024336736,0.3,0,275.0,933.0,0.0,312.0,1,0.8459121642839988,0.0
1004,1004,-0.7715236512913382,-0.8,1,373.0,595.0,1.0,162.0,1,0.7905893815776748,0.0
1005,1005,-0.19662321402969174,-0.2,1,392.0,756.0,1.0,1312.0,1,0.5330332404553142,0.0
1006,1006,0.08810911559806223,0.1,0,428.0,507.0,0.0,255.0,1,0.9834182404321958,0.0
1007,1007,-0.1965434235342558,-0.2,1,251.0,942.0,1.0,277.0,1,1.242227009068284,0.0
1008,1008,-0.43387677140848346,-0.4,1,443.0,832.0,1.0,425.0,1,1.1669164960608898,0.0
1009,1009,-0.43641370989515327,-0.4,1,355.0,806.0,1.0,359.0,1,0.7262596427805789,0.0
1010,1010,-0.5410717272670262,-0.5,1,341.0,662.0,1.0,327.0,1,0.7408540304661024,0.0
1011,1011,0.9279239178464371,0.9,0,375.0,647.0,0.0,158.0,1,1.0976299380238712,0.0
1012,1012,-0.09905106095424077,-0.1,1,490.0,690.0,0.0,510.0,0,0.7252247359139695,0.0
1013,1013,-0.5326930069270734,-0.5,1,471.0,882.0,1.0,297.0,1,0.515346474951439,0.0
1014,1014,-0.8503338034046932,-0.9,1,475.0,666.0,1.0,129.0,1,0.6432787252195558,0.0
1015,1015,-0.9091025222492726,-0.9,1,295.0,915.0,1.0,190.0,1,0.8118131973467335,0.0
1016,1016,-0.7437435781603436,-0.7,1,455.0,653.0,1.0,272.0,1,0.6910253240578119,0.0
1017,1017,-0.8587649275324607,-0.9,1,337.0,585.0,1.0,118.0,1,1.1316666838743683,0.0
1018,1018,-0.39261427045400543,-0.4,1,455.0,829.0,1.0,146.0,1,1.1091236364989723,0.0
1019,1019,-0.20621632575048654,-0.2,1,304.0,610.0,1.0,546.0,1,0.6754967232297084,0.0
1020,1020,-0.6560372698378385,-0.7,1,324.0,789.0,1.0,157.0,1,0.9226256860670303,0.0
1021,1021,-0.03257123322474187,-0.0,1,499.0,536.0,0.0,245.0,0,1.207072161117872,0.0
1022,1022,0.6553300023551392,0.7,0,282.0,752.0,0.0,236.0,1,0.7688637452383424,0.0
1023,1023,-0.5630201875981404,-0.6,1,307.0,769.0,1.0,174.0,1,0.7095022041635118,0.0
1024,1024,-0.24129609421207854,-0.2,1,449.0,614.0,0.0,347.0,0,0.9836915648482162,0.0
1025,1025,0.0879721439904746,0.1,0,451.0,959.0,0.0,330.0,1,0.532913751036833,0.0
1026,1026,-0.4677391900626602,-0.5,1,409.0,572.0,1.0,229.0,1,0.9087779968088654,0.0
1027,1027,0.1413982540300216,0.1,0,322.0,891.0,0.0,277.0,1,0.7152635143403178,0.0
1028,1028,-0.5489468789947243,-0.5,1,343.0,947.0,1.0,340.0,1,0.6238501546113329,0.0
1029,1029,0.707706147160956,0.7,0,495.0,787.0,0.0,108.0,1,1.2489559195169933,0.0
1030,1030,0.6647690114940712,0.7,0,490.0,685.0,0.0,175.0,1,1.245811319440568,0.0
1031,1031,-0.5536989466887361,-0.6,1,478.0,715.0,1.0,207.0,1,0.9419017624607584,0.0
1032,1032,-0.04444413957933335,-0.0,1,486.0,875.0,0.0,369.0,0,0.714858684471579,0.0
1033,1033,0.893087627320138,0.9,0,345.0,662.0,0.0,163.0,1,0.6130096926612907,0.0
1034,1034,0.024756911193806852,0.0,0,471.0,565.0,0.0,214.0,1,0.6882489803443734,0.0
1035,1035,-0.5329332881659634,-0.5,1,439.0,985.0,1.0,166.0,1,0.8360567183905,0.0
1036,1036,0.9436802827302273,0.9,0,406.0,592.0,0.0,212.0,1,1.0098236776059732,0.0
1037,1037,0.7386045602684312,0.7,0,383.0,864.0,0.0,143.0,1,0.7835899616327554,0.0
1038,1038,-0.0946990644864889,-0.1,1,311.0,780.0,0.0,309.0,0,0.7239045300288942,0.0
1039,1039,-0.11596797396435465,-0.1,1,471.0,867.0,1.0,372.0,1,1.078649541005673,0.0
1040,1040,-0.539171469399077,-0.5,1,256.0,552.0,1.0,132.0,1,1.1482656482460327,0.0
1041,1041,-0.053517209438007196,-0.1,1,489.0,757.0,0.0,474.0,0,0.5116040074874255,0.0
1042,1042,0.025689175778605744,0.0,0,427.0,767.0,0.0,336.0,1,0.7530740072343376,0.0
1043,1043,-0.5968377476012812,-0.6,1,326.0,766.0,1.0,248.0,1,1.0994887551299746,0.0
1044,1044,-0.13639599650585654,-0.1,1,327.0,678.0,1.0,335.0,1,0.8676174231785078,0.0
1045,1045,-0.8883683886104743,-0.9,1,277.0,633.0,1.0,220.0,1,0.6039953274942642,0.0
1046,1046,-0.9701459398368197,-1.0,1,303.0,934.0,1.0,213.0,1,0.858160585369355,0.0
1047,1047,0.1692397850448044,0.2,0,422.0,737.0,0.0,191.0,1,0.9779379053529776,0.0
1048,1048,0.6449251519909296,0.6,0,464.0,925.0,0.0,161.0,1,0.8893078433136027,0.0
1049,1049,0.020184170606020402,0.0,0,381.0,708.0,0.0,361.0,1,0.9495105688146003,0.0
1050,1050,0.7502658314511319,0.8,0,319.0,859.0,0.0,172.0,1,1.066920295854648,0.0
1051,1051,-0.5426389015507056,-0.5,1,436.0,752.0,1.0,222.0,1,0.6958537515759688,0.0
1052,1052,-0.1553737598210656,-0.2,1,384.0,892.0,0.0,244.0,0,1.1809594992253354,0.0
1053,1053,0.7039489538222934,0.7,0,269.0,984.0,0.0,177.0,1,0.5405420046415912,0.0
1054,1054,-0.8187323448323482,-0.8,1,302.0,616.0,1.0,122.0,1,0.8845603836098967,0.0
1055,1055,0.07074839690505907,0.1,0,303.0,599.0,0.0,358.0,1,0.7817311449786013,0.0
1056,1056,0.04698722523408039,0.0,0,297.0,709.0,0.0,484.0,1,1.0295832306850436,0.0
1057,1057,0.6300751605345438,0.6,0,343.0,960.0,0.0,247.0,1,0.6392315570831892,0.0
1058,1058,0.002218998677446571,0.0,0,251.0,690.0,0.0,309.0,1,0.523515480999435,0.0
1059,1059,-0.00849204793595204,-0.0,1,387.0,904.0,0.0,1039.0,0,0.630694880626632,0.0
1060,1060,0.10590090393836071,0.1,0,260.0,843.0,0.0,387.0,1,0.6432525886380951,0.0
1061,1061,-0.5054337485823404,-0.5,1,294.0,639.0,1.0,267.0,1,1.213180270064597,0.0
1062,1062,0.052015332137434145,0.1,0,344.0,824.0,0.0,252.0,1,1.0513552430114874,0.0
1063,1063,0.759672722691872,0.8,0,428.0,517.0,0.0,185.0,1,1.164464751027229,0.0
1064,1064,-0.13136359910735895,-0.1,1,271.0,878.0,0.0,1181.0,0,0.5066008061767913,0.0
1065,1065,-0.6209173450361765,-0.6,1,311.0,643.0,1.0,226.0,1,0.5352149941710761,0.0
1066,1066,0.6563772843538782,0.7,0,482.0,926.0,0.0,72.0,1,1.2436606333470757,0.0
1067,1067,-0.20683262154592463,-0.2,1,368.0,939.0,0.0,203.0,0,1.1868932136649084,0.0
1068,1068,0.7496095014635566,0.7,0,255.0,942.0,0.0,113.0,1,0.7357828631414234,0.0
1069,1069,-0.7760832170415486,-0.8,1,346.0,686.0,1.0,188.0,1,0.9119708392463495,0.0
1070,1070,-0.4265342620225996,-0.4,1,359.0,792.0,1.0,219.0,1,1.1743987486672796,0.0
1071,1071,0.4824598260718109,0.5,0,375.0,516.0,0.0,249.0,1,0.7560778518122908,0.0
1072,1072,0.43136105052736107,0.4,0,270.0,708.0,0.0,192.0,1,0.7909630264800482,0.0
1073,1073,0.24756636042975888,0.2,0,427.0,939.0,0.0,124.0,1,0.9390701508012645,0.0
1074,1074,-0.9234188378456385,-0.9,1,281.0,929.0,1.0,190.0,1,0.6366973919710285,0.0
1075,1075,-0.7911675703374181,-0.8,1,432.0,966.0,1.0,212.0,1,0.5213871936279219,0.0
1076,1076,0.2752196177774886,0.3,0,273.0,561.0,0.0,356.0,1,0.6632954041178377,0.0
1077,1077,0.1546670998986448,0.2,0,494.0,891.0,0.0,175.0,1,1.035394643832281,0.0
1078,1078,0.7509850727919496,0.8,0,432.0,894.0,0.0,224.0,1,0.9555518910038823,0.0
1079,1079,0.36709118632437887,0.4,0,463.0,853.0,0.0,494.0,1,0.559614416543291,0.0
1080,1080,0.39913478747508524,0.4,0,438.0,837.0,0.0,175.0,1,0.8092072875074365,0.0
1081,1081,-0.6952516428272051,-0.7,1,305.0,732.0,1.0,193.0,1,1.2194095553398223,0.0
1082,1082,-0.023678925299887466,-0.0,1,481.0,529.0,0.0,310.0,0,0.9404262070675362,0.0
1083,1083,0.37895881386846764,0.4,0,456.0,645.0,0.0,159.0,1,0.8691245121762918,0.0
1084,1084,-0.7369126450100711,-0.7,1,260.0,506.0,1.0,494.0,1,1.2076816791795615,0.0
1085,1085,-0.9243730660869904,-0.9,1,259.0,898.0,1.0,383.0,1,0.5338269582356494,0.0
1086,1086,-0.10355528492201338,-0.1,1,352.0,742.0,0.0,176.0,0,1.1343788835163415,0.0
1087,1087,0.6808470953652705,0.7,0,465.0,966.0,0.0,159.0,1,1.1892679352122444,0.0
1088,1088,-0.6431511590620447,-0.6,1,301.0,851.0,1.0,208.0,1,0.9513891290909676,0.0
1089,1089,0.1762983751632996,0.2,0,295.0,731.0,0.0,474.0,1,0.557751067909898,0.0
1090,1090,-0.5084657074223704,-0.5,1,464.0,555.0,1.0,231.0,1,0.9073234243069234,0.0
1091,1091,-0.017619014829012514,-0.0,1,472.0,876.0,1.0,142.0,1,0.6673298299045378,0.0
1092,1092,0.14645802052356638,0.1,0,256.0,779.0,0.0,285.0,1,0.8617670387449063,0.0
1093,1093,0.08276876189883198,0.1,0,487.0,528.0,0.0,295.0,1,0.9882761687423824,0.0
1094,1094,-0.16125144280574077,-0.2,1,355.0,641.0,0.0,274.0,0,0.8836520345885729,0.0
1095,1095,-0.2981942694781843,-0.3,1,437.0,529.0,0.0,574.0,0,1.1906514317902341,0.0
1096,1096,0.9248643387778612,0.9,0,302.0,798.0,0.0,120.0,1,0.6088024928552608,0.0
1097,1097,-0.24403556207278654,-0.2,1,475.0,912.0,1.0,163.0,1,0.8499486673913795,0.0
1098,1098,-0.49785019211081405,-0.5,1,403.0,527.0,1.0,350.0,1,0.5716256464086793,0.0
1099,1099,0.4640111612744928,0.5,0,270.0,877.0,0.0,293.0,1,0.5519402951187236,0.0
1100,1100,-0.22507661277663615,-0.2,1,488.0,608.0,1.0,314.0,1,1.1016102679238644,0.0
1101,1101,-0.904873781943538,-0.9,1,251.0,518.0,1.0,181.0,1,0.9723155083280165,0.0
1102,1102,0.490103161974212,0.5,0,490.0,910.0,0.0,160.0,1,0.9795483012197566,0.0
1103,1103,0.08758685355239271,0.1,0,443.0,691.0,0.0,256.0,1,0.5406975577757595,0.0
1104,1104,0.9633465281720974,1.0,0,307.0,819.0,0.0,104.0,1,1.1524117287935842,0.0
1105,1105,0.9345340254131238,0.9,0,266.0,893.0,0.0,111.0,1,0.7247261357576918,0.0
1106,1106,0.8451491736275578,0.8,0,475.0,883.0,0.0,142.0,1,0.5414451313620654,0.0
1107,1107,-0.7887674103344251,-0.8,1,253.0,714.0,1.0,173.0,1,1.2216286180704015,0.0
1108,1108,-0.7107657663164397,-0.7,1,473.0,783.0,1.0,234.0,1,1.2169146069410928,0.0
1109,1109,0.5185481935869563,0.5,0,266.0,824.0,0.0,270.0,1,0.5014578691899082,0.0
1110,1110,0.9204257935223759,0.9,0,251.0,653.0,0.0,166.0,1,0.9370025439338578,0.0
1111,1111,0.8103892573432725,0.8,0,397.0,940.0,0.0,213.0,1,1.0160400969560588,0.0
1112,1112,-0.5427443433389116,-0.5,1,483.0,533.0,1.0,204.0,1,1.1324387486749405,0.0
1113,1113,-0.430717838289042,-0.4,1,349.0,870.0,1.0,81.0,1,0.9393880655971608,0.0
1114,1114,-0.19823162515071857,-0.2,1,317.0,941.0,1.0,312.0,1,0.9462068819758175,0.0
1115,1115,-0.7804180895221935,-0.8,1,259.0,742.0,1.0,229.0,1,0.6351447623545645,0.0
1116,1116,0.9336546902327536,0.9,0,314.0,836.0,0.0,220.0,1,0.5038958420369708,0.0
1117,1117,-0.6987709385010537,-0.7,1,324.0,899.0,1.0,247.0,1,0.942042978368175,0.0
1118,1118,0.44958207458712707,0.4,0,412.0,656.0,0.0,162.0,1,0.7722142307860389,0.0
1119,1119,0.9770301305598348,1.0,0,385.0,673.0,0.0,172.0,1,0.8363860934439156,0.0
1120,1120,-0.42562370963065566,-0.4,1,466.0,591.0,1.0,263.0,1,1.0333762149336496,0.0
1121,1121,0.7933790839536508,0.8,0,325.0,699.0,0.0,116.0,1,0.535203438152195,0.0
1122,1122,0.10732643270738773,0.1,0,313.0,608.0,0.0,259.0,1,1.1197058421469275,0.0
1123,1123,0.7179860553850148,0.7,0,413.0,562.0,0.0,195.0,1,0.7922878487486267,0.0
1124,1124,0.0470872106552962,0.0,0,437.0,549.0,0.0,134.0,1,1.2086539175706115,0.0
1125,1125,-0.5513763874007458,-0.6,1,284.0,968.0,1.0,458.0,1,0.6626866845198749,0.0
1126,1126,-0.5557053405774708,-0.6,1,442.0,561.0,1.0,257.0,1,0.860048019959726,0.0
1127,1127,-0.08254752496214124,-0.1,1,399.0,979.0,0.0,552.0,0,0.6180715758127039,0.0
1128,1128,0.9018066064471255,0.9,0,371.0,802.0,0.0,97.0,1,1.0407024166620507,0.0
1129,1129,0.5258932714491729,0.5,0,298.0,694.0,0.0,148.0,1,0.7269003282558246,0.0
1130,1130,0.007620125897394026,0.0,0,384.0,910.0,0.0,786.0,1,0.5036053857910676,0.0
1131,1131,0.7322775261368113,0.7,0,254.0,638.0,0.0,278.0,1,0.500745152899648,0.0
1132,1132,-0.07841232497349737,-0.1,1,439.0,690.0,0.0,1151.0,0,0.56564509656659,0.0
1133,1133,-0.1880434622083249,-0.2,1,462.0,963.0,0.0,245.0,0,0.9738612757749079,0.0
1134,1134,0.9836694997534754,1.0,0,375.0,532.0,0.0,153.0,1,0.7715820809979258,0.0
1135,1135,-0.10557904639927718,-0.1,1,310.0,753.0,0.0,287.0,0,0.9124563348113802,0.0
1136,1136,-0.5235513877646771,-0.5,1,360.0,948.0,1.0,292.0,1,1.044318332325696,0.0
1137,1137,0.8212310452463327,0.8,0,402.0,998.0,0.0,180.0,1,0.7777017953405054,0.0
1138,1138,-0.19101533043995644,-0.2,1,427.0,634.0,1.0,259.0,1,1.1628030617008864,0.0
1139,1139,0.5339767518346745,0.5,0,264.0,710.0,0.0,166.0,1,0.9090347802951086,0.0
1140,1140,0.23638759422553357,0.2,0,419.0,641.0,0.0,530.0,1,0.5808790464149642,0.0
1141,1141,0.026445692901426066,0.0,0,262.0,921.0,1.0,327.0,0,0.6670812112809494,0.0
1142,1142,0.409607289193211,0.4,0,305.0,814.0,0.0,281.0,1,0.9332546084505999,0.0
1143,1143,-0.6251046166053928,-0.6,1,258.0,691.0,1.0,171.0,1,1.0266191645632599,0.0
1144,1144,-0.920690740237299,-0.9,1,454.0,658.0,1.0,168.0,1,0.9330708780372612,0.0
1145,1145,0.3464047150231433,0.3,0,416.0,683.0,0.0,151.0,1,0.5729419873090469,0.0
1146,1146,-0.17716446467274838,-0.2,1,350.0,819.0,1.0,201.0,1,1.1538242338418727,0.0
1147,1147,0.3793235837579747,0.4,0,422.0,939.0,0.0,269.0,1,0.7354688445332166,0.0
1148,1148,-0.37656744421834554,-0.4,1,471.0,914.0,1.0,275.0,1,0.6448366469581365,0.0
1149,1149,-0.7310576268632965,-0.7,1,254.0,988.0,1.0,218.0,1,1.021899915323974,0.0
1150,1150,-0.7025319556459568,-0.7,1,351.0,809.0,1.0,160.0,1,0.8233289429092205,0.0
1151,1151,-0.13331605181482997,-0.1,1,465.0,593.0,0.0,342.0,0,0.9302055477978142,0.0
1152,1152,-0.7923511738363429,-0.8,1,374.0,907.0,1.0,99.0,1,1.203118565589595,0.0
1153,1153,0.06424603802901485,0.1,0,404.0,502.0,0.0,404.0,1,1.029255841779571,0.0
1154,1154,0.20743395754830551,0.2,0,387.0,836.0,0.0,287.0,1,1.1716135740749005,0.0
1155,1155,0.1625129098122169,0.2,0,497.0,873.0,0.0,790.0,1,0.5763151521146899,0.0
1156,1156,-0.4821896966982424,-0.5,1,378.0,558.0,1.0,134.0,1,0.9911147841566059,0.0
1157,1157,-0.7516438171412383,-0.8,1,399.0,791.0,1.0,150.0,1,0.9430658460608886,0.0
1158,1158,-0.14668327317946162,-0.1,1,280.0,538.0,0.0,182.0,0,1.183117596604227,0.0
1159,1159,-0.3422159904180351,-0.3,1,459.0,685.0,1.0,386.0,1,0.9933647686628705,0.0
1160,1160,-0.7556200042830135,-0.8,1,376.0,632.0,1.0,202.0,1,1.1243902488203976,0.0
1161,1161,0.1860280242458061,0.2,0,385.0,676.0,0.0,219.0,1,0.9214525231111764,0.0
1162,1162,-0.2614710121120165,-0.3,1,451.0,749.0,1.0,270.0,1,0.5825808270550755,0.0
1163,1163,0.2868250539777102,0.3,0,263.0,686.0,0.0,221.0,1,0.5725834375908023,0.0
1164,1164,-0.12775470450955373,-0.1,1,381.0,563.0,0.0,326.0,0,1.0752936993415705,0.0
1165,1165,0.47646031277521383,0.5,0,267.0,895.0,0.0,228.0,1,1.186814554537938,0.0
1166,1166,0.8667501652153506,0.9,0,394.0,873.0,0.0,203.0,1,0.8868085405420858,0.0
1167,1167,-0.594473320908034,-0.6,1,412.0,604.0,1.0,214.0,1,1.1408995667782968,0.0
1168,1168,0.30316752605774355,0.3,0,336.0,642.0,0.0,172.0,1,1.0940231260039668,0.0
1169,1169,0.8448740932385894,0.8,0,283.0,622.0,0.0,145.0,1,1.061200566278001,0.0
1170,1170,0.7548520783810235,0.8,0,362.0,658.0,0.0,90.0,1,0.7001908304119953,0.0
1171,1171,0.033383196515067715,0.0,0,278.0,846.0,0.0,316.0,1,1.2188809753672056,0.0
1172,1172,-0.18810098557533617,-0.2,1,482.0,957.0,0.0,201.0,0,0.7047473672870352,0.0
1173,1173,-0.08887212818034085,-0.1,1,496.0,606.0,1.0,438.0,1,0.8060722935589952,0.0
1174,1174,-0.02706438734985661,-0.0,1,382.0,598.0,0.0,190.0,0,1.046997109589018,0.0
1175,1175,0.1889415911742922,0.2,0,428.0,618.0,0.0,204.0,1,0.7808316499871537,0.0
1176,1176,-0.22334671549036367,-0.2,1,303.0,824.0,1.0,183.0,1,1.242116458122084,0.0
1177,1177,0.15807150042395612,0.2,0,316.0,864.0,0.0,230.0,1,0.5843399104723203,0.0
1178,1178,0.0412018276576096,0.0,0,362.0,759.0,0.0,339.0,1,1.160911862849987,0.0
1179,1179,-0.9592836226921917,-1.0,1,414.0,639.0,1.0,227.0,1,0.7405991947114539,0.0
1180,1180,-0.098307378920369,-0.1,1,472.0,942.0,0.0,516.0,0,0.9003145735301268,0.0
1181,1181,0.6482628469506333,0.6,0,310.0,582.0,0.0,138.0,1,0.6855245355008478,0.0
1182,1182,0.1997336379927832,0.2,0,276.0,537.0,0.0,237.0,1,1.0692531367279974,0.0
1183,1183,-0.9629295013244539,-1.0,1,282.0,566.0,1.0,192.0,1,0.8176999273194823,0.0
1184,1184,-0.8693144572965648,-0.9,1,415.0,842.0,1.0,223.0,1,1.0068807572142835,0.0
1185,1185,0.21647171773123608,0.2,0,259.0,791.0,0.0,420.0,1,1.000146040169718,0.0
1186,1186,-0.6251576113312418,-0.6,1,316.0,792.0,1.0,172.0,1,1.042126297984558,0.0
1187,1187,-0.4823885310208642,-0.5,1,280.0,735.0,1.0,155.0,1,1.2099956637793605,0.0
1188,1188,-0.607576617339084,-0.6,1,331.0,971.0,1.0,238.0,1,0.8411084497930708,0.0
1189,1189,0.09512180988088037,0.1,0,281.0,842.0,0.0,147.0,1,1.0554872198144538,0.0
1190,1190,0.9204882043522102,0.9,0,445.0,569.0,0.0,106.0,1,1.0212747156009288,0.0
1191,1191,0.2559285584153932,0.3,0,365.0,510.0,0.0,125.0,1,0.9964108040069835,0.0
1192,1192,0.1874698272216211,0.2,0,447.0,738.0,0.0,205.0,1,1.1166069791927962,0.0
1193,1193,0.0347189579313949,0.0,0,481.0,552.0,1.0,357.0,0,0.9123421691766974,0.0
1194,1194,0.11457949518868782,0.1,0,398.0,954.0,0.0,228.0,1,0.9154258483060294,0.0
1195,1195,-0.2290131695479678,-0.2,1,377.0,532.0,1.0,291.0,1,0.6226417038046186,0.0
1196,1196,0.5281811032239203,0.5,0,395.0,761.0,0.0,104.0,1,1.1938838116046298,0.0
1197,1197,0.38697982672676323,0.4,0,406.0,598.0,0.0,-494.0,1,0.9783357876727087,0.0
1198,1198,-0.8288964933423275,-0.8,1,338.0,542.0,1.0,130.0,1,1.0585966323652904,0.0
1199,1199,0.18906602025545904,0.2,0,257.0,571.0,0.0,182.0,1,1.0139081119031847,0.0
1200,1200,-0.3786821595232135,-0.4,1,413.0,896.0,1.0,291.0,1,1.184889862783273,0.0
1201,1201,0.7012403231080839,0.7,0,371.0,516.0,0.0,123.0,1,1.122410351935727,0.0
1202,1202,0.7324790492440958,0.7,0,286.0,719.0,0.0,185.0,1,0.9548024565161753,0.0
1203,1203,-0.8645283334254801,-0.9,1,340.0,774.0,1.0,256.0,1,0.6652627275972209,0.0
1204,1204,-0.9415985689262776,-0.9,1,338.0,876.0,1.0,156.0,1,0.6921524511371355,0.0
1205,1205,0.7272858594701044,0.7,0,356.0,520.0,0.0,154.0,1,0.7977354712874128,0.0
1206,1206,0.3569090636978278,0.4,0,300.0,883.0,0.0,147.0,1,1.0074035560020893,0.0
1207,1207,0.36317963191790614,0.4,0,354.0,616.0,0.0,150.0,1,0.6590766468861978,0.0
1208,1208,0.9920276131558641,1.0,0,285.0,561.0,0.0,154.0,1,0.6489246453741289,0.0
1209,1209,-0.7944851758618499,-0.8,1,369.0,810.0,1.0,261.0,1,1.171272103642106,0.0
1210,1210,-0.3471857333971604,-0.3,1,409.0,529.0,1.0,312.0,1,1.0665512224584166,0.0
1211,1211,-0.6716318010467586,-0.7,1,423.0,949.0,1.0,198.0,1,0.8140047535292332,0.0
1212,1212,0.5156244927386633,0.5,0,403.0,588.0,0.0,209.0,1,0.5573775469663828,0.0
1213,1213,-0.6033402355895872,-0.6,1,270.0,766.0,1.0,264.0,1,0.9335516903756294,0.0
1214,1214,0.7880721187456079,0.8,0,341.0,518.0,0.0,211.0,1,0.623995030088033,0.0
1215,1215,-0.056805837980438145,-0.1,1,379.0,775.0,0.0,376.0,0,0.8792576332342363,0.0
1216,1216,0.8401582798359903,0.8,0,386.0,653.0,0.0,141.0,1,0.9092011532542202,0.0
1217,1217,-0.2348631504041876,-0.2,1,484.0,571.0,1.0,135.0,1,1.1263846222019218,0.0
1218,1218,0.6860189565487196,0.7,0,437.0,873.0,0.0,130.0,1,1.0475581512396455,0.0
1219,1219,-0.36816364568977633,-0.4,1,480.0,864.0,1.0,266.0,1,0.864041185442342,0.0
1220,1220,-0.9187417869887906,-0.9,1,354.0,548.0,1.0,168.0,1,0.7086144467083235,0.0
1221,1221,0.4592458485045938,0.5,0,476.0,695.0,0.0,219.0,1,0.9440961431313906,0.0
1222,1222,-0.577272289270693,-0.6,1,342.0,674.0,1.0,204.0,1,1.1365045565293312,0.0
1223,1223,0.6463605498643572,0.6,0,417.0,980.0,0.0,163.0,1,0.8161993948507311,0.0
1224,1224,-0.035148609149718624,-0.0,1,376.0,582.0,0.0,352.0,0,0.817195782320576,0.0
1225,1225,-0.5569194380126834,-0.6,1,321.0,894.0,1.0,355.0,1,0.598206164800805,0.0
1226,1226,-0.36193176832740925,-0.4,1,392.0,523.0,1.0,365.0,1,0.6388197420919826,0.0
1227,1227,-0.8581650719035199,-0.9,1,489.0,740.0,1.0,211.0,1,0.6770553788540707,0.0
