,trial,coherence,coherence_bin,correct_side,target_onset,checker_onset,decision,decision_time,correct_decision,init_y_left
0,0,0.0673065854819419,0.1,0,291.0,941.0,0.0,688.0,1,0.38656091892178424
1,1,0.13279531033073466,0.1,0,431.0,608.0,0.0,811.0,1,0.30841426881876205
2,2,0.7038184751889982,0.7,0,258.0,722.0,0.0,240.0,1,0.3452095727681317
3,3,0.2959357631983379,0.3,0,341.0,748.0,0.0,541.0,1,0.392254256662044
4,4,-0.05537501006697543,-0.1,1,377.0,889.0,0.0,304.0,0,0.4803875525719403
5,5,-0.24644014232978084,-0.2,1,369.0,715.0,0.0,-684.0,0,0.4596350274508939
6,6,0.5630084941166102,0.6,0,469.0,865.0,0.0,256.0,1,0.38112355534951436
7,7,-0.928986252838617,-0.9,1,349.0,526.0,1.0,185.0,1,0.40409239724427193
8,8,0.7695314979882106,0.8,0,294.0,835.0,0.0,261.0,1,0.42242452589573753
9,9,0.6579942660962881,0.7,0,252.0,982.0,0.0,206.0,1,0.2042203388854959
10,10,-0.18535109834494845,-0.2,1,251.0,931.0,1.0,298.0,1,0.46266983075652746
11,11,-0.49792928573567874,-0.5,1,376.0,682.0,0.0,-718.0,0,0.45668801602033743
12,12,0.6969655133988788,0.7,0,484.0,978.0,0.0,258.0,1,0.21802343608557387
13,13,0.4125286856878443,0.4,0,288.0,991.0,0.0,341.0,1,0.44491497745532677
14,14,0.2607967291545761,0.3,0,498.0,971.0,0.0,451.0,1,0.4223523028025299
15,15,-0.8012946369301714,-0.8,1,421.0,844.0,1.0,305.0,1,0.2209548681439217
16,16,0.571279817514531,0.6,0,319.0,841.0,0.0,380.0,1,0.32253094818109884
17,17,-0.8216418431992172,-0.8,1,253.0,981.0,1.0,316.0,1,0.3427196750332896
18,18,0.5599487537206878,0.6,0,348.0,614.0,0.0,258.0,1,0.49062008486821285
19,19,0.11198768689826122,0.1,0,294.0,540.0,0.0,346.0,1,0.21293300067134172
20,20,0.8592785727585663,0.9,0,474.0,969.0,0.0,127.0,1,0.45987242490106744
21,21,0.29671560133803276,0.3,0,438.0,751.0,0.0,421.0,1,0.26419270353852503
22,22,0.02358878490499805,0.0,0,376.0,857.0,0.0,1047.0,1,0.3469491567348143
23,23,0.15678549968114286,0.2,0,498.0,502.0,0.0,620.0,1,0.3744743551837378
24,24,0.17129105326510974,0.2,0,364.0,516.0,0.0,470.0,1,0.3010854135411864
25,25,0.37444968068772355,0.4,0,498.0,903.0,0.0,249.0,1,0.35793023581848504
26,26,0.9782230963525931,1.0,0,253.0,642.0,0.0,135.0,1,0.4387538993679785
27,27,-0.06589095579772342,-0.1,1,373.0,629.0,1.0,288.0,1,0.27414731303278517
28,28,-0.2659114258272446,-0.3,1,442.0,851.0,1.0,407.0,1,0.23494396568538586
29,29,0.8742107723972987,0.9,0,498.0,507.0,0.0,155.0,1,0.43756547079268243
30,30,-0.2346726609853933,-0.2,1,360.0,698.0,0.0,432.0,0,0.2882256706643574
31,31,-0.09362951519306217,-0.1,1,479.0,664.0,0.0,627.0,0,0.2950998534106472
32,32,0.26183706095700976,0.3,0,311.0,681.0,0.0,488.0,1,0.35074853534856976
33,33,0.5596319993508541,0.6,0,334.0,568.0,0.0,318.0,1,0.4144042911807718
34,34,-0.7217934108795356,-0.7,1,457.0,543.0,1.0,340.0,1,0.2991403005780634
35,35,-0.18221969797243642,-0.2,1,375.0,875.0,1.0,660.0,1,0.44856347399087537
36,36,0.7068927495188433,0.7,0,328.0,587.0,0.0,125.0,1,0.42791455750657825
37,37,0.667975401671278,0.7,0,471.0,775.0,0.0,184.0,1,0.33717057683595886
38,38,0.11003386260411929,0.1,0,322.0,991.0,0.0,117.0,1,0.48542335779205925
39,39,0.46161114666715264,0.5,0,294.0,573.0,0.0,283.0,1,0.34982562910600445
40,40,0.05132122160096064,0.1,0,309.0,850.0,0.0,241.0,1,0.30356518791344134
41,41,0.028514483232970234,0.0,0,412.0,595.0,0.0,583.0,1,0.30863007988140656
42,42,-0.8895831442731956,-0.9,1,314.0,984.0,1.0,212.0,1,0.4088491091350594
43,43,0.5442100485290271,0.5,0,368.0,755.0,0.0,257.0,1,0.47480017901740207
44,44,-0.8528345556255141,-0.9,1,441.0,705.0,1.0,224.0,1,0.21151494598313497
45,45,-0.0744684323776601,-0.1,1,253.0,631.0,1.0,1086.0,1,0.3226720399845915
46,46,0.4501236128150232,0.5,0,372.0,669.0,0.0,119.0,1,0.4345938378747401
47,47,0.4076569165619306,0.4,0,301.0,570.0,0.0,419.0,1,0.3687954852947818
48,48,-0.8483171253674702,-0.8,1,498.0,890.0,1.0,332.0,1,0.2784300664805007
49,49,0.3467906564658858,0.3,0,405.0,785.0,0.0,300.0,1,0.4803053452990275
50,50,-0.07706117460978779,-0.1,1,294.0,545.0,1.0,521.0,1,0.45974793876575343
51,51,-0.5632491423355273,-0.6,1,449.0,725.0,0.0,-664.0,0,0.4246514395184743
52,52,-0.14046473271687776,-0.1,1,467.0,785.0,1.0,1198.0,1,0.3812610297565455
53,53,-0.9885174500759015,-1.0,1,379.0,577.0,1.0,114.0,1,0.3317689498562909
54,54,0.4165186005641235,0.4,0,349.0,597.0,0.0,274.0,1,0.47266665476308645
55,55,-0.1346640690776213,-0.1,1,349.0,793.0,1.0,448.0,1,0.32719124685102685
56,56,-0.939571566344299,-0.9,1,335.0,843.0,1.0,192.0,1,0.3998159617216296
57,57,0.3632888495640061,0.4,0,419.0,848.0,0.0,263.0,1,0.41824232920638515
58,58,-0.7309391635761797,-0.7,1,340.0,801.0,1.0,219.0,1,0.3117680747311716
59,59,0.4733948991778345,0.5,0,308.0,546.0,0.0,696.0,1,0.261152544573428
60,60,-0.3420570104278877,-0.3,1,296.0,955.0,1.0,549.0,1,0.4033981861510604
61,61,0.3929172415097304,0.4,0,453.0,589.0,0.0,198.0,1,0.3922674062749646
62,62,-0.9635951254879436,-1.0,1,470.0,981.0,1.0,559.0,1,0.2048573682187844
63,63,-0.6863653854686511,-0.7,1,437.0,899.0,1.0,284.0,1,0.47226300512637237
64,64,0.3252119429841249,0.3,0,382.0,854.0,0.0,244.0,1,0.3839213486583125
65,65,0.3486969411711398,0.3,0,474.0,889.0,0.0,737.0,1,0.3575875474686386
66,66,-0.9164220472002147,-0.9,1,474.0,645.0,1.0,141.0,1,0.4768054901006344
67,67,0.6539299455655494,0.7,0,265.0,739.0,0.0,186.0,1,0.22131342419080197
68,68,0.06885670897047436,0.1,0,384.0,901.0,0.0,215.0,1,0.4355583594399031
69,69,-0.6716012880469973,-0.7,1,264.0,561.0,1.0,475.0,1,0.33102320024883525
70,70,0.8752568544636066,0.9,0,308.0,737.0,0.0,125.0,1,0.3596184813335743
71,71,-0.7742436335303036,-0.8,1,296.0,970.0,1.0,294.0,1,0.28308423730338983
72,72,0.13321746546791147,0.1,0,436.0,560.0,0.0,514.0,1,0.41091195180046663
73,73,-0.48649075768869876,-0.5,1,362.0,924.0,1.0,344.0,1,0.4496882864771077
74,74,0.657477508779782,0.7,0,495.0,620.0,0.0,95.0,1,0.38416890721010877
75,75,-0.14857017025211472,-0.1,1,485.0,991.0,1.0,334.0,1,0.42584174590666957
76,76,-0.43768228689403776,-0.4,1,332.0,994.0,1.0,194.0,1,0.29040678735269804
77,77,-0.2057937161434864,-0.2,1,416.0,872.0,1.0,352.0,1,0.2072174886451671
78,78,-0.47346302754621483,-0.5,1,354.0,741.0,1.0,365.0,1,0.47414982987352755
79,79,-0.7021553807813512,-0.7,1,348.0,719.0,1.0,253.0,1,0.3352950263175902
80,80,-0.3589797933021752,-0.4,1,487.0,601.0,1.0,472.0,1,0.23102042019253566
81,81,0.6164359130679153,0.6,0,432.0,894.0,0.0,494.0,1,0.31408419191586634
82,82,-0.6195712237359772,-0.6,1,330.0,548.0,1.0,382.0,1,0.20649100389008226
83,83,0.4945669307791949,0.5,0,290.0,821.0,0.0,219.0,1,0.30964564535862327
84,84,0.28535749069013927,0.3,0,357.0,658.0,0.0,305.0,1,0.350571477972797
85,85,0.7692453988870795,0.8,0,388.0,764.0,0.0,358.0,1,0.20366464465980977
86,86,0.3287014797291594,0.3,0,378.0,587.0,0.0,395.0,1,0.4014019825790003
87,87,-0.9024433284070494,-0.9,1,432.0,719.0,1.0,229.0,1,0.3261781042393883
88,88,0.06210235458111124,0.1,0,415.0,541.0,0.0,384.0,1,0.48158529735778766
89,89,-0.252571802558873,-0.3,1,497.0,508.0,1.0,395.0,1,0.455555617048732
90,90,0.5816302621513452,0.6,0,416.0,792.0,0.0,232.0,1,0.4904559275069136
91,91,-0.9951817174002593,-1.0,1,434.0,967.0,1.0,249.0,1,0.27574240038491804
92,92,0.48236506726627115,0.5,0,296.0,861.0,0.0,473.0,1,0.24154228375919531
93,93,-0.5629978729329337,-0.6,1,297.0,923.0,1.0,220.0,1,0.31510823236751084
94,94,0.08250490934782762,0.1,0,423.0,543.0,0.0,374.0,1,0.4897068206217321
95,95,-0.12075309978090698,-0.1,1,405.0,636.0,1.0,539.0,1,0.43921529106513507
96,96,-0.4871390506885789,-0.5,1,389.0,852.0,1.0,339.0,1,0.4210985935567187
97,97,-0.16487457825850682,-0.2,1,459.0,600.0,1.0,1421.0,1,0.22030944288770782
98,98,0.1357371858795926,0.1,0,441.0,917.0,0.0,492.0,1,0.28406639176765447
99,99,-0.7120623917565443,-0.7,1,414.0,603.0,1.0,283.0,1,0.3987411122821919
100,100,-0.24281415996654832,-0.2,1,431.0,697.0,1.0,732.0,1,0.3648070208903882
101,101,0.4706969726758661,0.5,0,330.0,593.0,0.0,277.0,1,0.46834424318146617
102,102,-0.4820929857557146,-0.5,1,496.0,844.0,1.0,1580.0,1,0.4482289210598498
103,103,0.43249662431705094,0.4,0,379.0,598.0,0.0,243.0,1,0.3606058735497904
104,104,0.031438309995098335,0.0,0,393.0,686.0,0.0,681.0,1,0.3549315932649396
105,105,-0.5131544640055941,-0.5,1,271.0,979.0,1.0,420.0,1,0.2798977861456976
106,106,0.1290863141367149,0.1,0,435.0,752.0,0.0,303.0,1,0.32763767925709175
107,107,-0.6174919140648423,-0.6,1,498.0,748.0,1.0,404.0,1,0.31790480004770044
108,108,0.6962080345584682,0.7,0,477.0,590.0,0.0,213.0,1,0.24369288910172215
109,109,-0.15004448656671232,-0.2,1,488.0,810.0,1.0,1502.0,1,0.4087105020246305
110,110,0.2003888582199682,0.2,0,315.0,993.0,0.0,272.0,1,0.250278508996791
111,111,-0.38818280016990947,-0.4,1,345.0,674.0,1.0,651.0,1,0.4710089712532319
112,112,0.06851646873676298,0.1,0,407.0,860.0,0.0,1723.0,1,0.44821590861200283
113,113,0.7527193646574826,0.8,0,338.0,548.0,0.0,224.0,1,0.49895635375876424
114,114,-0.596914586554498,-0.6,1,277.0,542.0,1.0,301.0,1,0.39808201917987573
115,115,0.9521219698660963,1.0,0,298.0,866.0,0.0,226.0,1,0.31154070735442035
116,116,-0.20568720986089817,-0.2,1,327.0,788.0,1.0,535.0,1,0.31273403960538354
117,117,-0.6583555110417698,-0.7,1,406.0,542.0,1.0,442.0,1,0.45780173703238697
118,118,0.8039640642887309,0.8,0,256.0,564.0,0.0,180.0,1,0.3941934372947159
119,119,-0.4101401329445973,-0.4,1,436.0,763.0,1.0,461.0,1,0.3961238036374758
120,120,0.6756546987201868,0.7,0,484.0,599.0,0.0,107.0,1,0.36520137273327147
121,121,-0.8630933597447101,-0.9,1,302.0,830.0,1.0,208.0,1,0.3321483836523304
122,122,0.4090392924174655,0.4,0,290.0,661.0,0.0,249.0,1,0.4446454109512019
123,123,0.2711277882172045,0.3,0,339.0,809.0,0.0,82.0,1,0.36564230299814793
124,124,-0.5891781697497538,-0.6,1,365.0,997.0,1.0,248.0,1,0.29034427987346956
125,125,-0.6394386715647498,-0.6,1,271.0,558.0,1.0,301.0,1,0.23980639120073466
126,126,0.9148975281607556,0.9,0,297.0,803.0,0.0,90.0,1,0.49550657359355843
127,127,0.3676895573631327,0.4,0,333.0,625.0,0.0,1032.0,1,0.38899830360451626
128,128,-0.16599283036490098,-0.2,1,445.0,965.0,1.0,270.0,1,0.2561168966606276
129,129,-0.676099563270887,-0.7,1,320.0,870.0,1.0,230.0,1,0.38935228083855633
130,130,-0.44886319996200763,-0.4,1,345.0,623.0,1.0,332.0,1,0.42410875733425607
131,131,0.268671592937642,0.3,0,441.0,518.0,0.0,511.0,1,0.29108618921748475
132,132,0.9309254790615633,0.9,0,386.0,882.0,0.0,192.0,1,0.2985571208740921
133,133,-0.2957919468485528,-0.3,1,347.0,524.0,1.0,2449.0,1,0.487825530479647
134,134,-0.43901991151865216,-0.4,1,481.0,616.0,1.0,383.0,1,0.3690097751817515
135,135,0.51118836928095,0.5,0,352.0,549.0,0.0,259.0,1,0.24765238391421396
136,136,-0.20528589830103816,-0.2,1,437.0,782.0,1.0,1161.0,1,0.2007147168822908
137,137,-0.4687692949758495,-0.5,1,439.0,834.0,1.0,207.0,1,0.24858565242036373
138,138,-0.2953826732526186,-0.3,1,350.0,503.0,1.0,787.0,1,0.3478983270580338
139,139,-0.6777848198702852,-0.7,1,437.0,982.0,1.0,171.0,1,0.3422875784822028
140,140,0.23859320454868915,0.2,0,475.0,899.0,0.0,266.0,1,0.4677323224669436
141,141,0.5352560863573972,0.5,0,271.0,957.0,0.0,202.0,1,0.3064227203293294
142,142,-0.10528316370219803,-0.1,1,457.0,699.0,1.0,504.0,1,0.3257342086031745
143,143,0.05385041016201475,0.1,0,338.0,990.0,0.0,102.0,1,0.451347653188539
144,144,0.5967763604127982,0.6,0,288.0,515.0,0.0,137.0,1,0.4602348467673886
145,145,0.5842711330917945,0.6,0,399.0,994.0,0.0,237.0,1,0.27799438479689853
146,146,0.035277395034225556,0.0,0,472.0,609.0,0.0,469.0,1,0.25255326917029675
147,147,-0.46660340041141435,-0.5,1,337.0,924.0,1.0,679.0,1,0.34875232092907743
148,148,0.7477688892786525,0.7,0,386.0,857.0,0.0,187.0,1,0.40968068115511397
149,149,0.27334816668997264,0.3,0,259.0,777.0,0.0,114.0,1,0.4670189168563083
150,150,0.3938291942298231,0.4,0,382.0,858.0,0.0,370.0,1,0.36063438494460864
151,151,-0.7765650162094027,-0.8,1,456.0,521.0,1.0,183.0,1,0.261423902049771
152,152,-0.0341312695260354,-0.0,1,465.0,685.0,1.0,2280.0,1,0.44770652566608815
153,153,0.9948456530464362,1.0,0,428.0,727.0,0.0,195.0,1,0.3739668483329177
154,154,-0.29512050076769025,-0.3,1,344.0,941.0,1.0,485.0,1,0.4912115271608828
155,155,-0.3761747828833799,-0.4,1,340.0,637.0,1.0,863.0,1,0.2550777324466723
156,156,0.031627299634930495,0.0,0,483.0,654.0,0.0,893.0,1,0.2888741419023029
157,157,-0.5699121887997305,-0.6,1,419.0,681.0,1.0,320.0,1,0.2588627485279701
158,158,0.8005870983865102,0.8,0,435.0,612.0,0.0,473.0,1,0.4816368811181461
159,159,0.7698914482141088,0.8,0,344.0,974.0,0.0,232.0,1,0.42362722747100334
160,160,-0.3979794839377968,-0.4,1,396.0,979.0,1.0,525.0,1,0.46702705547303935
161,161,-0.42501508143507705,-0.4,1,261.0,915.0,1.0,254.0,1,0.2705330749896684
162,162,-0.5548809136737811,-0.6,1,333.0,853.0,0.0,24.0,0,0.48031812452027167
163,163,-0.11800835340509686,-0.1,1,265.0,541.0,1.0,1074.0,1,0.27417784912770193
164,164,-0.7988282765394161,-0.8,1,465.0,627.0,1.0,398.0,1,0.43383402469650645
165,165,-0.5179742979444852,-0.5,1,271.0,881.0,1.0,248.0,1,0.4191450706132853
166,166,0.19182066719373592,0.2,0,424.0,803.0,0.0,183.0,1,0.2848032426524509
167,167,0.614530107110183,0.6,0,313.0,973.0,0.0,274.0,1,0.46896879495450705
168,168,0.2824316286710893,0.3,0,410.0,707.0,0.0,293.0,1,0.3670296886507197
169,169,-0.9494252048192504,-0.9,1,472.0,808.0,1.0,240.0,1,0.42292471935738296
170,170,-0.22352768019774039,-0.2,1,305.0,724.0,1.0,431.0,1,0.47384156733215793
171,171,-0.5762084174933038,-0.6,1,258.0,810.0,1.0,572.0,1,0.34162080341228496
172,172,-0.23497134236487893,-0.2,1,453.0,802.0,0.0,215.0,0,0.2793192875574661
173,173,0.7837619366168915,0.8,0,380.0,872.0,0.0,208.0,1,0.37966561324010006
174,174,0.38572867560654633,0.4,0,372.0,944.0,0.0,324.0,1,0.2729252687564421
175,175,-0.17517211607826755,-0.2,1,314.0,872.0,1.0,684.0,1,0.4111234166312055
176,176,-0.6042179592819752,-0.6,1,258.0,572.0,1.0,290.0,1,0.4402683110867881
177,177,-0.9728745677490094,-1.0,1,323.0,620.0,1.0,247.0,1,0.32150663753091624
178,178,0.15321933013388533,0.2,0,329.0,886.0,0.0,345.0,1,0.38647944611182417
179,179,-0.12172938741968231,-0.1,1,354.0,854.0,1.0,752.0,1,0.4539924178181967
180,180,-0.2182185253475013,-0.2,1,417.0,762.0,0.0,361.0,0,0.2758283570086629
181,181,0.4261174161126844,0.4,0,351.0,935.0,0.0,214.0,1,0.464081067800697
182,182,-0.033741622692460504,-0.0,1,401.0,779.0,0.0,320.0,0,0.29015107138254104
183,183,0.5118891687168199,0.5,0,496.0,734.0,0.0,150.0,1,0.41330217124453683
184,184,-0.8048213034544023,-0.8,1,368.0,827.0,1.0,185.0,1,0.47464010504771936
185,185,0.9241164746327968,0.9,0,377.0,963.0,0.0,240.0,1,0.48684443738600697
186,186,-0.26598434026785367,-0.3,1,447.0,914.0,1.0,449.0,1,0.3137817301910325
187,187,0.5758841621827826,0.6,0,298.0,517.0,0.0,185.0,1,0.3745825912252322
188,188,-0.9958451445044763,-1.0,1,272.0,929.0,1.0,269.0,1,0.23906251605119583
189,189,-0.6669109662025465,-0.7,1,405.0,841.0,1.0,204.0,1,0.3276311348302926
190,190,0.08013304450143788,0.1,0,310.0,983.0,0.0,777.0,1,0.2584205423834654
191,191,0.48700606606112773,0.5,0,383.0,662.0,0.0,275.0,1,0.3975537997754299
192,192,0.07499147658401939,0.1,0,335.0,725.0,0.0,440.0,1,0.462236760707016
193,193,0.5533801942987424,0.6,0,308.0,875.0,0.0,397.0,1,0.2369808604022734
194,194,0.9555997394706959,1.0,0,460.0,999.0,0.0,351.0,1,0.234903945874555
195,195,0.19276924862568534,0.2,0,396.0,551.0,0.0,343.0,1,0.3940777209730725
196,196,0.6224539264422331,0.6,0,446.0,951.0,0.0,213.0,1,0.3851432828603957
197,197,-0.9518381155693678,-1.0,1,480.0,741.0,1.0,269.0,1,0.37114644083143145
198,198,0.21747734988542256,0.2,0,356.0,989.0,0.0,435.0,1,0.28117811021995887
199,199,-0.7183934614435412,-0.7,1,329.0,754.0,1.0,217.0,1,0.4371760927836579
200,200,0.4433409456291304,0.4,0,337.0,650.0,0.0,253.0,1,0.38832230158035785
201,201,-0.6710900081200233,-0.7,1,325.0,668.0,1.0,187.0,1,0.25743252387595833
202,202,0.8747235287330863,0.9,0,303.0,649.0,0.0,418.0,1,0.26370501442662775
203,203,-0.4006764770826228,-0.4,1,250.0,522.0,1.0,458.0,1,0.4075352479289131
204,204,-0.2471706219061307,-0.2,1,302.0,691.0,0.0,-603.0,0,0.4767882007033675
205,205,-0.058230544260405415,-0.1,1,358.0,679.0,1.0,1813.0,1,0.2695127574584725
206,206,0.06142279569498843,0.1,0,430.0,730.0,0.0,710.0,1,0.4174051346472626
207,207,-0.11584676594805554,-0.1,1,400.0,840.0,1.0,280.0,1,0.38288751447449676
208,208,-0.5290274240676913,-0.5,1,346.0,988.0,1.0,296.0,1,0.29407400288278407
209,209,-0.8975531342164451,-0.9,1,345.0,734.0,1.0,181.0,1,0.37323922100960716
210,210,-0.8568895117010007,-0.9,1,292.0,573.0,1.0,235.0,1,0.3366883019784651
211,211,-0.02802498636734896,-0.0,1,442.0,776.0,0.0,1462.0,0,0.41323851406819323
212,212,-0.5914248423687853,-0.6,1,493.0,575.0,0.0,12.0,0,0.409521254967803
213,213,-0.27523468887351865,-0.3,1,347.0,923.0,1.0,330.0,1,0.20354027778417622
214,214,0.5561410812820293,0.6,0,359.0,814.0,0.0,367.0,1,0.41800978523088006
215,215,-0.8331811258947788,-0.8,1,341.0,831.0,1.0,318.0,1,0.22077489336615297
216,216,0.014395141852305615,0.0,0,273.0,541.0,0.0,346.0,1,0.3063760522371984
217,217,0.10826739365795679,0.1,0,301.0,682.0,0.0,607.0,1,0.2956863891709934
218,218,0.041406266969604255,0.0,0,364.0,679.0,0.0,3397.0,1,0.3779067928877073
219,219,0.9168753118103499,0.9,0,332.0,681.0,0.0,177.0,1,0.4439139141256399
220,220,-0.9238179604635666,-0.9,1,326.0,703.0,1.0,271.0,1,0.3440576886713971
221,221,-0.977063480709689,-1.0,1,437.0,679.0,1.0,364.0,1,0.4021727304429202
222,222,-0.7916256550486411,-0.8,1,376.0,983.0,1.0,381.0,1,0.2342508633403056
223,223,0.32147637215624414,0.3,0,298.0,901.0,0.0,151.0,1,0.4261434967365111
224,224,0.8815592090741959,0.9,0,404.0,737.0,0.0,109.0,1,0.3139798599827314
225,225,-0.3880424269413483,-0.4,1,262.0,733.0,1.0,305.0,1,0.30354121898309083
226,226,0.1523571139429709,0.2,0,272.0,750.0,0.0,268.0,1,0.4166946045572688
227,227,-0.5362603066614628,-0.5,1,299.0,792.0,1.0,259.0,1,0.2884651313062472
228,228,-0.048987590047294916,-0.0,1,335.0,894.0,0.0,141.0,0,0.4562379136667636
229,229,-0.644804648435289,-0.6,1,284.0,803.0,1.0,513.0,1,0.36406336739587264
230,230,0.7903387238556647,0.8,0,383.0,879.0,0.0,88.0,1,0.44337477703008243
231,231,0.7442624999657832,0.7,0,404.0,903.0,0.0,123.0,1,0.2979057845547448
232,232,0.4858617794525628,0.5,0,260.0,830.0,0.0,360.0,1,0.35044110120813365
233,233,-0.6682576224685524,-0.7,1,462.0,564.0,1.0,424.0,1,0.2945103995807147
234,234,-0.6412066779523145,-0.6,1,329.0,634.0,1.0,277.0,1,0.305214332040774
235,235,0.7682425278575051,0.8,0,258.0,807.0,0.0,285.0,1,0.3359622924945289
236,236,-0.18146046966309126,-0.2,1,446.0,691.0,1.0,443.0,1,0.42763820346079706
237,237,-0.8855384389255203,-0.9,1,252.0,524.0,1.0,384.0,1,0.31002709837525255
238,238,0.5435594025289912,0.5,0,326.0,724.0,0.0,220.0,1,0.22713496384161166
239,239,-0.6074266750400661,-0.6,1,432.0,641.0,1.0,237.0,1,0.43466816655933294
240,240,-0.6632554804494377,-0.7,1,303.0,628.0,1.0,229.0,1,0.480362774097605
241,241,0.9320921483277165,0.9,0,408.0,937.0,0.0,225.0,1,0.2583517207487875
242,242,0.8312290276319225,0.8,0,490.0,542.0,0.0,208.0,1,0.3644426375268118
243,243,-0.16514759076276864,-0.2,1,393.0,677.0,1.0,810.0,1,0.4582400117223832
244,244,-0.6030858088727098,-0.6,1,354.0,632.0,1.0,284.0,1,0.33070317633611934
245,245,-0.4918567553791311,-0.5,1,484.0,750.0,1.0,636.0,1,0.34522798220756923
246,246,-0.22240208030738828,-0.2,1,450.0,784.0,0.0,-234.0,0,0.3741559208985801
247,247,0.4864562988722143,0.5,0,374.0,886.0,0.0,300.0,1,0.48480654667547
248,248,0.004342684088271653,0.0,0,266.0,871.0,0.0,143.0,1,0.3436610640982643
249,249,-0.14403767921909583,-0.1,1,417.0,504.0,1.0,1089.0,1,0.2889700973021854
250,250,-0.45188845140239553,-0.5,1,440.0,723.0,1.0,587.0,1,0.2143383486915243
251,251,0.6774271742610047,0.7,0,263.0,955.0,0.0,232.0,1,0.45809980055786603
252,252,-0.036304744296501434,-0.0,1,415.0,688.0,0.0,207.0,0,0.3840581678317122
253,253,0.6426357223172134,0.6,0,450.0,885.0,0.0,545.0,1,0.463410963950574
254,254,-0.5072734816469686,-0.5,1,374.0,794.0,1.0,222.0,1,0.24007514903084656
255,255,0.2683640807741814,0.3,0,300.0,618.0,0.0,542.0,1,0.3939018399266537
256,256,-0.5903764246986094,-0.6,1,362.0,921.0,1.0,197.0,1,0.3312709079844821
257,257,-0.04751219663126349,-0.0,1,263.0,651.0,1.0,646.0,1,0.4538217003961472
258,258,-0.9201126257465002,-0.9,1,372.0,615.0,1.0,183.0,1,0.4087660264335873
259,259,-0.39480339598231917,-0.4,1,394.0,946.0,1.0,440.0,1,0.30291222567737797
260,260,0.5790818501151693,0.6,0,493.0,527.0,0.0,540.0,1,0.21059026125693725
261,261,-0.8170081764716368,-0.8,1,323.0,853.0,1.0,184.0,1,0.30139929783813013
262,262,0.9284199690409356,0.9,0,293.0,622.0,0.0,65.0,1,0.3425505991969454
263,263,-0.7214960209882793,-0.7,1,415.0,983.0,1.0,292.0,1,0.4499055853236684
264,264,-0.09080112861394096,-0.1,1,376.0,780.0,0.0,204.0,0,0.34259398207826575
265,265,-0.7247112277069891,-0.7,1,267.0,519.0,1.0,204.0,1,0.25990909799008377
266,266,0.607095044444292,0.6,0,458.0,764.0,0.0,318.0,1,0.2103327117420532
267,267,0.017289074427391027,0.0,0,422.0,769.0,1.0,729.0,0,0.3699340415955942
268,268,-0.7870642681873277,-0.8,1,347.0,895.0,1.0,168.0,1,0.4387718225340299
269,269,0.6040313188751663,0.6,0,369.0,586.0,0.0,205.0,1,0.44500829577275475
270,270,0.6375038597596208,0.6,0,350.0,676.0,0.0,234.0,1,0.42301559333753186
271,271,0.741047296225738,0.7,0,449.0,628.0,0.0,-207.0,1,0.3882904067623174
272,272,-0.1820060364645355,-0.2,1,426.0,744.0,1.0,760.0,1,0.31673902399297327
273,273,0.18819612030108135,0.2,0,444.0,534.0,0.0,282.0,1,0.4947057146987855
274,274,0.03647648010534654,0.0,0,281.0,898.0,0.0,901.0,1,0.2141220630054567
275,275,-0.8445615029412428,-0.8,1,291.0,544.0,1.0,195.0,1,0.2396007504410271
276,276,0.9505203673860725,1.0,0,450.0,591.0,0.0,279.0,1,0.27063592340692355
277,277,0.2262080699079425,0.2,0,429.0,501.0,0.0,800.0,1,0.446212913234931
278,278,0.24861751802615206,0.2,0,347.0,844.0,0.0,309.0,1,0.3931280239276952
279,279,-0.8663529232058504,-0.9,1,361.0,918.0,1.0,221.0,1,0.24252375068206605
280,280,0.9998486426458477,1.0,0,468.0,819.0,0.0,293.0,1,0.2442984067032211
281,281,0.15162725955611656,0.2,0,401.0,654.0,1.0,705.0,0,0.3956129058602046
282,282,0.05380268666379262,0.1,0,440.0,895.0,0.0,885.0,1,0.4277111427692924
283,283,0.2361069778949465,0.2,0,314.0,950.0,0.0,936.0,1,0.3412266314780795
284,284,0.5307587091145183,0.5,0,259.0,973.0,0.0,598.0,1,0.2291645031537373
285,285,-0.008393486015721319,-0.0,1,325.0,944.0,0.0,141.0,0,0.47309969224907694
286,286,0.3822707314829279,0.4,0,367.0,628.0,0.0,285.0,1,0.385806450262677
287,287,-0.7550948560510236,-0.8,1,471.0,640.0,1.0,339.0,1,0.3226174647808606
288,288,-0.8670981241697322,-0.9,1,282.0,688.0,1.0,240.0,1,0.2046430456518002
289,289,0.21720917206538704,0.2,0,315.0,655.0,0.0,380.0,1,0.22998520011815984
290,290,0.36407453646304044,0.4,0,356.0,620.0,0.0,444.0,1,0.39360511930367936
291,291,-0.7144623453705352,-0.7,1,317.0,870.0,1.0,253.0,1,0.43162021775283765
292,292,-0.645874471718902,-0.6,1,359.0,517.0,1.0,304.0,1,0.2694589336893839
293,293,-0.5458003664634126,-0.5,1,321.0,894.0,1.0,825.0,1,0.2674366415585014
294,294,-0.8448029244809092,-0.8,1,285.0,874.0,0.0,-619.0,0,0.4674804809201281
295,295,0.3368007193787588,0.3,0,285.0,510.0,0.0,475.0,1,0.21905069483187545
296,296,-0.6950455407644323,-0.7,1,484.0,884.0,1.0,182.0,1,0.2754385486988478
297,297,-0.6428682123889462,-0.6,1,375.0,553.0,1.0,342.0,1,0.43345220720905314
298,298,0.06880090098035407,0.1,0,469.0,721.0,0.0,220.0,1,0.48696967984427975
299,299,0.051830984008761405,0.1,0,497.0,692.0,0.0,271.0,1,0.47777897392767366
300,300,0.09616562671721929,0.1,0,264.0,650.0,0.0,326.0,1,0.33810167712310274
301,301,0.9468072733909711,0.9,0,336.0,884.0,0.0,-170.0,1,0.41666418428205776
302,302,-0.4087446578330778,-0.4,1,379.0,912.0,1.0,359.0,1,0.3078613415117156
303,303,0.4054230169091386,0.4,0,374.0,538.0,0.0,198.0,1,0.42366889999558177
304,304,0.47735058064986213,0.5,0,357.0,638.0,0.0,225.0,1,0.4430323702542235
305,305,0.6016845543581428,0.6,0,320.0,955.0,0.0,655.0,1,0.25803999333756444
306,306,0.5182639813549133,0.5,0,489.0,795.0,0.0,246.0,1,0.206132997181103
307,307,-0.4781883916770324,-0.5,1,382.0,931.0,1.0,427.0,1,0.362649467037812
308,308,0.7011175457071324,0.7,0,324.0,574.0,0.0,202.0,1,0.2679317622662212
309,309,-0.3288835617022947,-0.3,1,394.0,877.0,1.0,629.0,1,0.24278808153933518
310,310,0.67218792997135,0.7,0,409.0,962.0,0.0,89.0,1,0.4566767523163853
311,311,-0.7358124539486603,-0.7,1,468.0,673.0,1.0,339.0,1,0.36940252690504777
312,312,-0.7849459744382863,-0.8,1,302.0,781.0,1.0,147.0,1,0.35877089758000597
313,313,-0.8733552830379876,-0.9,1,443.0,808.0,1.0,169.0,1,0.34241329932230846
314,314,0.8728096751136458,0.9,0,492.0,894.0,0.0,204.0,1,0.4359431146506332
315,315,0.43896023790194816,0.4,0,292.0,514.0,0.0,424.0,1,0.3278059233401788
316,316,0.047234279629869036,0.0,0,335.0,506.0,1.0,369.0,0,0.30678225741148757
317,317,-0.05790690255498809,-0.1,1,447.0,660.0,0.0,1473.0,0,0.3926959204552988
318,318,-0.028702879862919195,-0.0,1,390.0,930.0,1.0,330.0,1,0.39822549439606647
319,319,0.4782717664334648,0.5,0,272.0,944.0,0.0,384.0,1,0.46162317058849706
320,320,-0.9695399922907428,-1.0,1,346.0,626.0,1.0,178.0,1,0.4378189920820628
321,321,0.310006151685277,0.3,0,482.0,730.0,0.0,258.0,1,0.35209887018165636
322,322,-0.1831241013077196,-0.2,1,284.0,863.0,1.0,273.0,1,0.2987120721222157
323,323,0.877727712921567,0.9,0,263.0,934.0,0.0,113.0,1,0.47064103790329903
324,324,-0.9528772680455684,-1.0,1,420.0,618.0,1.0,222.0,1,0.20143023766393256
325,325,-0.15917310365997306,-0.2,1,280.0,902.0,0.0,198.0,0,0.36868800097808185
326,326,-0.6416986132896312,-0.6,1,485.0,741.0,1.0,374.0,1,0.27835593640330025
327,327,-0.8064760813733787,-0.8,1,425.0,705.0,1.0,340.0,1,0.3119003914846226
328,328,0.37510004436203315,0.4,0,398.0,822.0,0.0,540.0,1,0.4767017022714512
329,329,-0.3635865824551352,-0.4,1,263.0,755.0,1.0,212.0,1,0.21845758070076188
330,330,0.783422089532088,0.8,0,418.0,515.0,0.0,327.0,1,0.41597763014120626
331,331,0.24261226284089332,0.2,0,417.0,575.0,0.0,498.0,1,0.26712538365688315
332,332,0.5898779308738802,0.6,0,415.0,518.0,0.0,287.0,1,0.4151863109893673
333,333,0.7214569529400139,0.7,0,407.0,924.0,0.0,319.0,1,0.2100573878949332
334,334,-0.8808560337225295,-0.9,1,338.0,893.0,0.0,-521.0,0,0.44567559241150734
335,335,-0.43645745991698925,-0.4,1,426.0,909.0,1.0,385.0,1,0.4410682021572078
336,336,0.44252570629952137,0.4,0,257.0,553.0,0.0,320.0,1,0.20509722707011885
337,337,0.38418808894941425,0.4,0,475.0,680.0,0.0,115.0,1,0.3909034731865101
338,338,0.6373136356064542,0.6,0,444.0,560.0,0.0,236.0,1,0.49113269149835564
339,339,-0.009581268470623128,-0.0,1,419.0,981.0,0.0,370.0,0,0.3193104642634641
340,340,-0.6049840217177254,-0.6,1,434.0,548.0,1.0,278.0,1,0.24049963857973122
341,341,0.9708479292372936,1.0,0,351.0,559.0,0.0,150.0,1,0.41369530344876676
342,342,-0.5767901505671897,-0.6,1,467.0,850.0,1.0,263.0,1,0.47184033579675044
343,343,-0.8704469190923116,-0.9,1,264.0,923.0,1.0,253.0,1,0.40789897864234953
344,344,0.9483917767489762,0.9,0,355.0,623.0,0.0,302.0,1,0.36431159464442964
345,345,0.561959990862603,0.6,0,338.0,999.0,0.0,163.0,1,0.42671119704947497
346,346,0.7530094619780012,0.8,0,359.0,812.0,0.0,79.0,1,0.48500022467499054
347,347,0.03103952481764427,0.0,0,265.0,973.0,0.0,1192.0,1,0.46938748389289064
348,348,-0.47157408195032136,-0.5,1,287.0,651.0,1.0,632.0,1,0.30114127354521353
349,349,-0.6216732081049297,-0.6,1,472.0,632.0,1.0,326.0,1,0.20302649471498543
350,350,0.6415599666214145,0.6,0,416.0,865.0,0.0,219.0,1,0.2593959729888452
351,351,0.29852135086513343,0.3,0,315.0,551.0,0.0,294.0,1,0.3831730940462956
352,352,0.00350304710866034,0.0,0,293.0,599.0,1.0,1328.0,0,0.23504226251148286
353,353,-0.17010495813839932,-0.2,1,397.0,724.0,0.0,399.0,0,0.43192174285569673
354,354,-0.09812679976058614,-0.1,1,399.0,926.0,1.0,575.0,1,0.34196676369649853
355,355,0.3147055243800452,0.3,0,313.0,835.0,0.0,512.0,1,0.45121603754476486
356,356,0.7181022890456432,0.7,0,383.0,897.0,0.0,210.0,1,0.4097403979987573
357,357,-0.5820489029080176,-0.6,1,310.0,542.0,1.0,208.0,1,0.3188001243136308
358,358,-0.7622321035029953,-0.8,1,416.0,921.0,1.0,213.0,1,0.3664918750718686
359,359,0.18110558340377603,0.2,0,440.0,914.0,0.0,1036.0,1,0.22606339986198318
360,360,0.7448637886839271,0.7,0,271.0,615.0,0.0,284.0,1,0.4844494271118267
361,361,-0.7248249552465358,-0.7,1,391.0,505.0,1.0,194.0,1,0.4959110034392158
362,362,-0.18364447904539194,-0.2,1,387.0,885.0,1.0,228.0,1,0.24185992007931936
363,363,0.21831033888298212,0.2,0,266.0,984.0,0.0,200.0,1,0.4397937874101071
364,364,-0.5244475363067389,-0.5,1,309.0,902.0,1.0,549.0,1,0.4993848923830216
365,365,0.40307939308128526,0.4,0,353.0,589.0,0.0,508.0,1,0.4545026806942607
366,366,0.16228321238734766,0.2,0,419.0,952.0,0.0,299.0,1,0.3811798670674472
367,367,-0.8308574500669348,-0.8,1,344.0,571.0,1.0,295.0,1,0.42411800098821684
368,368,-0.9885105078429148,-1.0,1,271.0,938.0,1.0,261.0,1,0.2673949199675826
369,369,-0.31613019400791376,-0.3,1,275.0,712.0,1.0,273.0,1,0.33087355807408164
370,370,0.057211071194382734,0.1,0,334.0,980.0,0.0,606.0,1,0.27700396934899646
371,371,0.05780994168713205,0.1,0,266.0,981.0,0.0,1013.0,1,0.43972740645812525
372,372,0.37646207573027524,0.4,0,299.0,694.0,0.0,377.0,1,0.29098400811028496
373,373,-0.4790346424496248,-0.5,1,354.0,790.0,1.0,966.0,1,0.4246734171013942
374,374,0.32055478137609716,0.3,0,286.0,606.0,0.0,638.0,1,0.3230700342025561
375,375,0.8954134764089641,0.9,0,285.0,844.0,0.0,121.0,1,0.289689803643015
376,376,-0.0826160913244336,-0.1,1,401.0,859.0,0.0,610.0,0,0.3557883956799286
377,377,-0.9194674278384234,-0.9,1,384.0,910.0,1.0,246.0,1,0.3513046682352756
378,378,0.014206733194961796,0.0,0,398.0,592.0,0.0,530.0,1,0.24325142350915363
379,379,0.4173521594079226,0.4,0,284.0,658.0,0.0,298.0,1,0.29552630657384255
380,380,0.7265529530249191,0.7,0,402.0,971.0,0.0,377.0,1,0.29047340242810965
381,381,0.4676749556728965,0.5,0,303.0,833.0,0.0,454.0,1,0.41069775691388677
382,382,0.7894500709948908,0.8,0,452.0,804.0,0.0,74.0,1,0.4140344989028386
383,383,0.0772676416632947,0.1,0,282.0,579.0,0.0,309.0,1,0.24807381613597462
384,384,-0.5774126183406181,-0.6,1,463.0,568.0,1.0,199.0,1,0.4310474585707805
385,385,0.42305071746279155,0.4,0,445.0,586.0,0.0,719.0,1,0.2564872803340834
386,386,-0.6175053879346635,-0.6,1,417.0,673.0,1.0,400.0,1,0.4926740182944336
387,387,0.5602541229248883,0.6,0,401.0,692.0,0.0,247.0,1,0.48119452014295533
388,388,0.2353553486878628,0.2,0,327.0,707.0,0.0,456.0,1,0.23763851233912298
389,389,-0.6405784408085595,-0.6,1,406.0,561.0,1.0,313.0,1,0.20376117358984724
390,390,0.5853476719310806,0.6,0,444.0,924.0,0.0,132.0,1,0.2682146353051837
391,391,0.6830975249839648,0.7,0,424.0,777.0,0.0,349.0,1,0.36974574515176883
392,392,-0.015148884933518847,-0.0,1,332.0,753.0,0.0,975.0,0,0.2961830713761141
393,393,-0.13716164993183289,-0.1,1,454.0,828.0,0.0,178.0,0,0.46008844420047307
394,394,0.7300248873229853,0.7,0,266.0,555.0,0.0,239.0,1,0.2065444018430355
395,395,0.10747165699006667,0.1,0,478.0,906.0,0.0,1116.0,1,0.2674760774779917
396,396,-0.7042981517295668,-0.7,1,360.0,884.0,1.0,336.0,1,0.3528948822343796
397,397,-0.8889255318596532,-0.9,1,354.0,888.0,1.0,188.0,1,0.39554792526772664
398,398,-0.9567544709085036,-1.0,1,255.0,819.0,1.0,306.0,1,0.48341246964486534
399,399,0.6255345314978233,0.6,0,306.0,513.0,0.0,221.0,1,0.3762076274732759
400,400,0.8134695732677188,0.8,0,388.0,650.0,0.0,282.0,1,0.29363870074473214
401,401,0.17684278845916568,0.2,0,253.0,993.0,0.0,314.0,1,0.24988613210452149
402,402,0.13486719350173137,0.1,0,316.0,609.0,0.0,305.0,1,0.34099191714239874
403,403,0.6408340742134686,0.6,0,311.0,739.0,0.0,210.0,1,0.3556826673603004
404,404,-0.0853458763185646,-0.1,1,432.0,984.0,1.0,454.0,1,0.29964892543247623
405,405,0.20290627667927175,0.2,0,287.0,961.0,0.0,362.0,1,0.23083216504333146
406,406,-0.81711925306669,-0.8,1,297.0,817.0,1.0,256.0,1,0.4456058135361104
407,407,0.9677932547643642,1.0,0,376.0,835.0,0.0,189.0,1,0.32397363499650195
408,408,-0.7761715105921139,-0.8,1,271.0,714.0,1.0,355.0,1,0.34545759356366856
409,409,-0.33372849641804425,-0.3,1,336.0,621.0,1.0,463.0,1,0.25242488411268
410,410,-0.5538042941537584,-0.6,1,397.0,623.0,1.0,270.0,1,0.3507926467002698
411,411,-0.4039653691964711,-0.4,1,414.0,994.0,1.0,302.0,1,0.34166236493537416
412,412,-0.23173941899079264,-0.2,1,380.0,535.0,1.0,365.0,1,0.2546289982665826
413,413,-0.03247190700719904,-0.0,1,310.0,529.0,0.0,401.0,0,0.40847782794710896
414,414,0.48501818665132723,0.5,0,400.0,895.0,0.0,165.0,1,0.3873023958262356
415,415,-0.4840847221191582,-0.5,1,454.0,753.0,1.0,893.0,1,0.2445814879842884
416,416,0.3189466859873882,0.3,0,387.0,922.0,0.0,251.0,1,0.48783341078121545
417,417,0.5934729840814843,0.6,0,270.0,953.0,0.0,247.0,1,0.4928106636319613
418,418,0.040000704376202734,0.0,0,352.0,542.0,1.0,256.0,0,0.2793382068703065
419,419,0.9303816436667876,0.9,0,350.0,672.0,0.0,478.0,1,0.37183419997342837
420,420,-0.7172523668231396,-0.7,1,424.0,576.0,1.0,260.0,1,0.4387997315276224
421,421,0.5656439421797796,0.6,0,413.0,689.0,0.0,258.0,1,0.34441921460768943
422,422,-0.6959190192897462,-0.7,1,310.0,720.0,1.0,180.0,1,0.3902667347120191
423,423,0.9555518249845258,1.0,0,333.0,811.0,0.0,116.0,1,0.4507652308465484
424,424,-0.5962032618474566,-0.6,1,408.0,616.0,1.0,456.0,1,0.20896697117960902
425,425,0.16862856978717367,0.2,0,294.0,694.0,0.0,1242.0,1,0.2460240420536597
426,426,-0.7670817228145679,-0.8,1,472.0,685.0,1.0,413.0,1,0.427917036340106
427,427,0.42579629927377094,0.4,0,281.0,860.0,0.0,159.0,1,0.407793472547492
428,428,-0.7918957425265689,-0.8,1,407.0,687.0,1.0,586.0,1,0.45159048038455374
429,429,-0.5346096463610268,-0.5,1,322.0,764.0,1.0,594.0,1,0.2852265330061659
430,430,0.2822908343159989,0.3,0,383.0,690.0,0.0,467.0,1,0.26039680205755866
431,431,0.8583110463042773,0.9,0,306.0,738.0,0.0,266.0,1,0.3138458042530522
432,432,-0.5463825938038329,-0.5,1,281.0,732.0,1.0,237.0,1,0.2856698211058864
433,433,-0.7667762065968768,-0.8,1,254.0,821.0,0.0,-595.0,0,0.48428194612001235
434,434,0.7936447634418271,0.8,0,453.0,698.0,0.0,99.0,1,0.484841943871905
435,435,0.723398340611229,0.7,0,326.0,861.0,0.0,223.0,1,0.22216064061174157
436,436,-0.9572142165454496,-1.0,1,369.0,727.0,1.0,204.0,1,0.2153969363029578
437,437,0.5443512794005811,0.5,0,437.0,904.0,0.0,539.0,1,0.2813097983040083
438,438,-0.13641710614532787,-0.1,1,432.0,670.0,1.0,428.0,1,0.36737761375937306
439,439,-0.7193921423017469,-0.7,1,353.0,688.0,1.0,209.0,1,0.4919955817790949
440,440,0.8301546138027087,0.8,0,468.0,578.0,0.0,344.0,1,0.2700334961380065
441,441,0.574914207126781,0.6,0,406.0,929.0,0.0,375.0,1,0.2899135898053661
442,442,-0.24687918142296517,-0.2,1,433.0,580.0,1.0,287.0,1,0.3491098643553163
443,443,-0.5968221241536602,-0.6,1,410.0,749.0,0.0,111.0,0,0.46894581960957005
444,444,0.6061643432160773,0.6,0,251.0,522.0,0.0,347.0,1,0.22865692026118478
445,445,0.19883837500026313,0.2,0,473.0,500.0,0.0,707.0,1,0.44288778436368137
446,446,0.9592320350484038,1.0,0,374.0,888.0,0.0,188.0,1,0.3986928869324142
447,447,-0.45930447869064617,-0.5,1,425.0,717.0,1.0,358.0,1,0.25754778374138515
448,448,-0.17143031805634212,-0.2,1,286.0,505.0,1.0,589.0,1,0.23972515809007935
449,449,-0.9195073212147831,-0.9,1,477.0,530.0,1.0,343.0,1,0.29616036478770663
450,450,0.049540354402728415,0.0,0,443.0,556.0,0.0,441.0,1,0.2840661800332614
451,451,0.6942959779922371,0.7,0,312.0,674.0,0.0,104.0,1,0.4379227378155168
452,452,0.021393594755767964,0.0,0,465.0,782.0,0.0,1023.0,1,0.4413367711266344
453,453,-0.33786651258330647,-0.3,1,381.0,818.0,1.0,561.0,1,0.22094906849577528
454,454,0.20735175652165894,0.2,0,346.0,577.0,0.0,1327.0,1,0.2751811408613564
455,455,-0.8553800806633447,-0.9,1,252.0,628.0,1.0,200.0,1,0.3048903736086967
456,456,-0.39152743102329035,-0.4,1,412.0,650.0,1.0,348.0,1,0.20705454448311317
457,457,0.6007701793641194,0.6,0,453.0,708.0,0.0,119.0,1,0.4624629572573801
458,458,0.9822351432018741,1.0,0,329.0,550.0,0.0,341.0,1,0.22562533267364682
459,459,0.5434813271080794,0.5,0,305.0,775.0,0.0,500.0,1,0.4851838648408707
460,460,0.051669370446440155,0.1,0,465.0,750.0,0.0,405.0,1,0.3913113837134262
461,461,0.37691151746503126,0.4,0,270.0,556.0,0.0,214.0,1,0.25762898781964727
462,462,-0.6389166074429629,-0.6,1,487.0,807.0,1.0,286.0,1,0.4094309751123718
463,463,0.9846296995437298,1.0,0,363.0,983.0,0.0,124.0,1,0.39711363865877186
464,464,-0.6478531875558295,-0.6,1,282.0,801.0,1.0,267.0,1,0.45977954300985807
465,465,-0.8940445213987149,-0.9,1,389.0,971.0,1.0,210.0,1,0.43377775479581293
466,466,0.45594274532281753,0.5,0,297.0,592.0,0.0,151.0,1,0.411800151526824
467,467,0.7547296023594674,0.8,0,339.0,723.0,0.0,208.0,1,0.37775854250023166
468,468,0.5329910635240076,0.5,0,392.0,782.0,0.0,96.0,1,0.47690664324317034
469,469,0.6747108296384334,0.7,0,262.0,613.0,0.0,85.0,1,0.21923160518154375
470,470,-0.11937293398802962,-0.1,1,358.0,845.0,1.0,1037.0,1,0.37454528671113796
471,471,0.28220297671606964,0.3,0,298.0,786.0,0.0,296.0,1,0.2433966436585475
472,472,0.3395223034311139,0.3,0,317.0,557.0,0.0,206.0,1,0.29615131694465446
473,473,0.4166513703191954,0.4,0,475.0,706.0,0.0,219.0,1,0.28784962044867074
474,474,-0.06545088345278227,-0.1,1,487.0,744.0,1.0,549.0,1,0.2315408370370112
475,475,-0.5350671089986418,-0.5,1,468.0,878.0,1.0,244.0,1,0.30495306490394003
476,476,-0.2120562702257065,-0.2,1,461.0,566.0,1.0,713.0,1,0.4051701320318032
477,477,-0.7461129088225753,-0.7,1,404.0,968.0,1.0,168.0,1,0.47453859412665317
478,478,0.9928090625266746,1.0,0,429.0,677.0,0.0,244.0,1,0.2472561392704976
479,479,0.08848325530907486,0.1,0,476.0,613.0,0.0,291.0,1,0.3875713562570327
480,480,0.5532626032873271,0.6,0,363.0,656.0,0.0,281.0,1,0.20380046337548677
481,481,-0.957603244072402,-1.0,1,356.0,699.0,1.0,295.0,1,0.4945185762589724
482,482,-0.8770547964236646,-0.9,1,250.0,501.0,1.0,249.0,1,0.3060473045553125
483,483,-0.8878726491705351,-0.9,1,391.0,936.0,1.0,203.0,1,0.49483968251868493
484,484,0.7345286156502395,0.7,0,354.0,805.0,0.0,121.0,1,0.37422363585058205
485,485,0.144628536299636,0.1,0,349.0,543.0,0.0,368.0,1,0.35488894833499884
486,486,-0.40414251824786107,-0.4,1,259.0,638.0,1.0,313.0,1,0.46902282109943316
487,487,0.2895301599568758,0.3,0,408.0,635.0,0.0,1077.0,1,0.24866505331128125
488,488,-0.15750576044292242,-0.2,1,425.0,522.0,1.0,473.0,1,0.23124390187635205
489,489,0.22871734228073537,0.2,0,345.0,590.0,0.0,425.0,1,0.2740551541834237
490,490,0.259457625539705,0.3,0,485.0,888.0,0.0,207.0,1,0.3617327468580792
491,491,-0.28457265714985236,-0.3,1,357.0,574.0,1.0,389.0,1,0.2097556703035638
492,492,-0.9539148617025202,-1.0,1,352.0,594.0,1.0,144.0,1,0.372426764533644
493,493,-0.4380683562314296,-0.4,1,404.0,918.0,1.0,448.0,1,0.4751897930250317
494,494,0.545038956121088,0.5,0,292.0,620.0,0.0,208.0,1,0.3988312552825201
495,495,0.1256988210767267,0.1,0,278.0,672.0,0.0,540.0,1,0.2786848219871269
496,496,0.4068669935656273,0.4,0,494.0,511.0,0.0,325.0,1,0.21247211061797464
497,497,0.29517044343714915,0.3,0,386.0,648.0,0.0,276.0,1,0.44030609617169003
498,498,0.02159971093712465,0.0,0,483.0,965.0,0.0,442.0,1,0.33462884628657363
499,499,0.6989517418795026,0.7,0,486.0,721.0,0.0,173.0,1,0.3852704895390522
500,500,-0.019375136023454198,-0.0,1,352.0,627.0,0.0,361.0,0,0.4311107191671325
501,501,-0.5508317944896137,-0.6,1,429.0,539.0,1.0,302.0,1,0.3711327094357956
502,502,0.6006750538184249,0.6,0,384.0,522.0,0.0,234.0,1,0.4576930263846865
503,503,0.8320456124926672,0.8,0,264.0,682.0,0.0,264.0,1,0.4430089349022376
504,504,-0.25429554309538793,-0.3,1,317.0,553.0,1.0,340.0,1,0.41275845190664884
505,505,-0.49187700494390785,-0.5,1,488.0,640.0,1.0,222.0,1,0.4073988197963076
506,506,-0.8300210449848824,-0.8,1,384.0,701.0,1.0,215.0,1,0.38330508164161803
507,507,-0.8822932144309061,-0.9,1,478.0,519.0,1.0,503.0,1,0.4072668474189026
508,508,-0.16250051134866483,-0.2,1,422.0,538.0,1.0,460.0,1,0.36092732950662104
509,509,-0.6635543235793755,-0.7,1,402.0,559.0,1.0,309.0,1,0.23186014354220263
510,510,0.8949565102040711,0.9,0,301.0,502.0,0.0,387.0,1,0.2546312874258164
511,511,0.5762123881970529,0.6,0,270.0,851.0,0.0,369.0,1,0.26453826540932923
512,512,-0.5615757829736199,-0.6,1,469.0,686.0,1.0,305.0,1,0.22771754631783775
513,513,0.7554542842342085,0.8,0,313.0,777.0,0.0,160.0,1,0.4302612471320807
514,514,-0.7676678838654145,-0.8,1,319.0,876.0,1.0,225.0,1,0.317587842650494
515,515,0.6437425011721718,0.6,0,334.0,532.0,0.0,274.0,1,0.36340325596879386
516,516,-0.6388114573574599,-0.6,1,313.0,860.0,1.0,327.0,1,0.26359616165415534
517,517,-0.09626371857854843,-0.1,1,439.0,622.0,1.0,1139.0,1,0.4596147159085785
518,518,0.14717906785228752,0.1,0,349.0,604.0,0.0,527.0,1,0.45998237373859485
519,519,-0.24903430862347564,-0.2,1,300.0,815.0,1.0,1075.0,1,0.26155555613561476
520,520,0.5813021142920387,0.6,0,369.0,646.0,0.0,185.0,1,0.33138406910940715
521,521,0.6082980322555911,0.6,0,251.0,844.0,0.0,325.0,1,0.27962814913845774
522,522,-0.8827573577027159,-0.9,1,258.0,954.0,1.0,268.0,1,0.22821803099120697
523,523,0.4841115597539114,0.5,0,470.0,981.0,0.0,149.0,1,0.3506675224626803
524,524,-0.13811656338044687,-0.1,1,272.0,839.0,1.0,599.0,1,0.3502465452740835
525,525,-0.9015053866541698,-0.9,1,402.0,689.0,1.0,199.0,1,0.41684762880245496
526,526,0.36169501795143333,0.4,0,285.0,557.0,0.0,628.0,1,0.48239467420057014
527,527,0.3686126598386137,0.4,0,381.0,566.0,0.0,333.0,1,0.4246667962526702
528,528,0.12312810095806204,0.1,0,344.0,673.0,0.0,583.0,1,0.28954109599288524
529,529,-0.8633121093987448,-0.9,1,490.0,561.0,1.0,159.0,1,0.4306466180316023
530,530,0.9845167574553371,1.0,0,302.0,625.0,0.0,203.0,1,0.356405519942743
531,531,0.7360540756334426,0.7,0,255.0,614.0,0.0,211.0,1,0.42338025483741315
532,532,-0.8355117543609292,-0.8,1,457.0,700.0,1.0,173.0,1,0.3519659144502845
533,533,-0.2029343278955933,-0.2,1,253.0,916.0,1.0,461.0,1,0.3451407847913863
534,534,0.7362859244930806,0.7,0,323.0,835.0,0.0,202.0,1,0.3562935071635989
535,535,0.1008008087303518,0.1,0,297.0,675.0,0.0,538.0,1,0.24504593344900083
536,536,-0.5233327893138988,-0.5,1,446.0,853.0,1.0,511.0,1,0.20159297223205913
537,537,-0.4169410706562666,-0.4,1,429.0,748.0,1.0,353.0,1,0.33270950670587024
538,538,-0.547802039191845,-0.5,1,395.0,633.0,0.0,182.0,0,0.47660461122122977
539,539,0.6243438198935316,0.6,0,304.0,832.0,0.0,134.0,1,0.46499887673699297
540,540,-0.8223937929937073,-0.8,1,446.0,718.0,1.0,216.0,1,0.28892707107606164
541,541,-0.08217773487908575,-0.1,1,474.0,570.0,1.0,1036.0,1,0.23034809950694787
542,542,-0.5425167551371379,-0.5,1,492.0,729.0,1.0,409.0,1,0.4024297553427764
543,543,-0.7128393506651209,-0.7,1,441.0,619.0,1.0,270.0,1,0.37408623776393113
544,544,0.9491258238748586,0.9,0,448.0,986.0,0.0,66.0,1,0.3814788682883671
545,545,0.63960056794894,0.6,0,255.0,886.0,0.0,309.0,1,0.2698074304684738
546,546,0.8324292048193469,0.8,0,422.0,685.0,0.0,183.0,1,0.46202268202194874
547,547,0.11972695536557731,0.1,0,349.0,606.0,0.0,205.0,1,0.304519168935029
548,548,0.3139646537968517,0.3,0,324.0,744.0,0.0,422.0,1,0.30709092748905154
549,549,0.11120992958600717,0.1,0,301.0,786.0,0.0,1703.0,1,0.20414707635151147
550,550,-0.19663649805310146,-0.2,1,252.0,907.0,0.0,261.0,0,0.4483302239319961
551,551,-0.5124019236143136,-0.5,1,422.0,608.0,1.0,340.0,1,0.4702225373637171
552,552,-0.33399277526552495,-0.3,1,332.0,896.0,1.0,212.0,1,0.4601465667308294
553,553,0.0666751823145102,0.1,0,391.0,664.0,0.0,415.0,1,0.24926495551689246
554,554,0.6873050722935938,0.7,0,342.0,740.0,0.0,348.0,1,0.21607125440041958
555,555,0.6241832124044715,0.6,0,433.0,715.0,0.0,62.0,1,0.3457706506008921
556,556,-0.20353047892527587,-0.2,1,382.0,878.0,1.0,390.0,1,0.22952460598811741
557,557,0.4000078122210249,0.4,0,289.0,519.0,0.0,352.0,1,0.34795208667578803
558,558,-0.16769070625513205,-0.2,1,482.0,547.0,0.0,361.0,0,0.40549402969578763
559,559,0.23860352098743198,0.2,0,289.0,624.0,0.0,87.0,1,0.3424303234735388
560,560,-0.6784725356888768,-0.7,1,310.0,530.0,1.0,250.0,1,0.4072705688476702
561,561,0.5374740822608781,0.5,0,343.0,663.0,0.0,214.0,1,0.2602956251150798
562,562,0.9193618247446662,0.9,0,253.0,907.0,0.0,140.0,1,0.3298847157260173
563,563,-0.3524486292521687,-0.4,1,351.0,984.0,1.0,525.0,1,0.3971036980037792
564,564,0.8690721073846821,0.9,0,387.0,643.0,0.0,80.0,1,0.4896971932029756
565,565,-0.8236053332328199,-0.8,1,498.0,636.0,0.0,-564.0,0,0.4703595951319167
566,566,0.3644367892724072,0.4,0,400.0,608.0,0.0,202.0,1,0.37807762555968627
567,567,-0.26013214016304675,-0.3,1,428.0,741.0,1.0,301.0,1,0.35609890950749806
568,568,0.45221864714966054,0.5,0,335.0,881.0,0.0,394.0,1,0.23700654164347845
569,569,0.40656911432831033,0.4,0,477.0,970.0,0.0,383.0,1,0.32596131440297604
570,570,-0.8829733853949464,-0.9,1,342.0,628.0,1.0,260.0,1,0.2038114845994422
571,571,0.7172136784704526,0.7,0,400.0,666.0,0.0,514.0,1,0.32359538558714235
572,572,-0.46565822816256763,-0.5,1,268.0,818.0,1.0,404.0,1,0.48275661898475625
573,573,0.7563650162382327,0.8,0,295.0,953.0,0.0,172.0,1,0.4456328183576927
574,574,0.15991644663472893,0.2,0,261.0,676.0,0.0,613.0,1,0.30629931755863504
575,575,0.9852769992394548,1.0,0,334.0,666.0,0.0,140.0,1,0.3788237749927071
576,576,-0.06402013865288358,-0.1,1,322.0,610.0,0.0,948.0,0,0.3107467642748287
577,577,0.35624042204603956,0.4,0,262.0,961.0,0.0,617.0,1,0.3761321136414848
578,578,-0.10829586629165822,-0.1,1,270.0,863.0,0.0,537.0,0,0.4338002509786564
579,579,-0.5486126649786829,-0.5,1,413.0,620.0,1.0,257.0,1,0.3175420233734666
580,580,0.5032290632487573,0.5,0,266.0,735.0,0.0,99.0,1,0.3916831153394774
581,581,-0.3841432535988296,-0.4,1,317.0,918.0,1.0,205.0,1,0.3955925026365721
582,582,0.6426996526354263,0.6,0,443.0,791.0,0.0,86.0,1,0.45108558520907266
583,583,-0.6437225877738741,-0.6,1,285.0,928.0,0.0,-503.0,0,0.4889083367653024
584,584,-0.9073732630938431,-0.9,1,414.0,874.0,1.0,412.0,1,0.2569546732841661
585,585,-0.6033983673100669,-0.6,1,278.0,964.0,1.0,188.0,1,0.4461495049503069
586,586,-0.3693092135713245,-0.4,1,362.0,578.0,1.0,600.0,1,0.2304562166349288
587,587,-0.7820550988774573,-0.8,1,354.0,979.0,1.0,287.0,1,0.4401936177261271
588,588,0.5162414131066377,0.5,0,469.0,572.0,0.0,329.0,1,0.31676536438624336
589,589,-0.10164952786812664,-0.1,1,479.0,538.0,1.0,553.0,1,0.4189252678553034
590,590,0.5699293392074669,0.6,0,308.0,745.0,0.0,247.0,1,0.3430825685815577
591,591,0.5380625439910172,0.5,0,281.0,876.0,0.0,223.0,1,0.4005529965755953
592,592,0.0880998754083917,0.1,0,331.0,771.0,0.0,268.0,1,0.3315073838325612
593,593,0.6817659250865946,0.7,0,370.0,886.0,0.0,164.0,1,0.41773878364084877
594,594,0.8845065119447353,0.9,0,276.0,505.0,0.0,199.0,1,0.47025557536741397
595,595,0.2117128280121714,0.2,0,476.0,948.0,0.0,226.0,1,0.34717107286486215
596,596,-0.9957001345857137,-1.0,1,403.0,868.0,1.0,229.0,1,0.4238285348883032
597,597,-0.8392010072655522,-0.8,1,431.0,622.0,1.0,347.0,1,0.21664538921416251
598,598,-0.4737018817116174,-0.5,1,440.0,536.0,0.0,-266.0,0,0.4997081519365372
599,599,-0.469418510573433,-0.5,1,404.0,681.0,1.0,295.0,1,0.23909887134145305
600,600,-0.7002610602809867,-0.7,1,497.0,503.0,1.0,170.0,1,0.20505700078492906
601,601,0.6262626564346041,0.6,0,387.0,882.0,0.0,221.0,1,0.2757229037061002
602,602,-0.5388154677762274,-0.5,1,262.0,961.0,0.0,-593.0,0,0.490216910250992
603,603,-0.9606299002312002,-1.0,1,433.0,876.0,1.0,281.0,1,0.480600122826551
604,604,0.4900839670287307,0.5,0,478.0,942.0,0.0,240.0,1,0.4943855835523981
605,605,-0.2497539050733284,-0.2,1,321.0,759.0,1.0,530.0,1,0.263649528356811
606,606,0.45405103410220793,0.5,0,284.0,807.0,0.0,469.0,1,0.4622995678096039
607,607,-0.5801052658328201,-0.6,1,377.0,926.0,1.0,557.0,1,0.4351620143730639
608,608,0.5289675907291953,0.5,0,306.0,652.0,0.0,302.0,1,0.20834446038339496
609,609,0.3718914516568863,0.4,0,460.0,870.0,0.0,250.0,1,0.25204856073610016
610,610,0.10183466342856051,0.1,0,429.0,851.0,0.0,-170.0,1,0.4862090616653595
611,611,-0.6786616933250935,-0.7,1,354.0,630.0,1.0,206.0,1,0.35198779165414057
612,612,0.6168107809891183,0.6,0,434.0,941.0,0.0,225.0,1,0.2682702447909855
613,613,0.4294927534966899,0.4,0,354.0,642.0,0.0,294.0,1,0.449034765147317
614,614,0.057484658760720064,0.1,0,385.0,683.0,1.0,402.0,0,0.348402726519504
615,615,0.08027074665793488,0.1,0,264.0,940.0,0.0,226.0,1,0.38808100344096136
616,616,0.5272629924661338,0.5,0,323.0,525.0,0.0,382.0,1,0.3286261785392427
617,617,-0.9534904168447409,-1.0,1,342.0,609.0,1.0,229.0,1,0.2892729507870345
618,618,-0.5034219687336268,-0.5,1,303.0,604.0,1.0,263.0,1,0.4466870646887208
619,619,0.3841475129210794,0.4,0,365.0,971.0,0.0,304.0,1,0.4928887885088985
620,620,0.10136389883118446,0.1,0,378.0,968.0,0.0,954.0,1,0.23538170338189351
621,621,-0.7041704334849987,-0.7,1,335.0,667.0,1.0,268.0,1,0.26290416060557553
622,622,-0.6543668695015925,-0.7,1,473.0,793.0,1.0,214.0,1,0.2514456736149617
623,623,-0.18335270906867862,-0.2,1,499.0,797.0,1.0,874.0,1,0.2567177470736392
624,624,0.5891708770955899,0.6,0,480.0,523.0,0.0,237.0,1,0.34641498540132865
625,625,-0.9517069609419417,-1.0,1,373.0,653.0,1.0,234.0,1,0.3247347708032559
626,626,0.819000532220314,0.8,0,496.0,654.0,0.0,180.0,1,0.4757641352164038
627,627,0.30512192167135255,0.3,0,397.0,833.0,0.0,250.0,1,0.28057817167150956
628,628,0.09641352902838274,0.1,0,293.0,776.0,0.0,251.0,1,0.3404466914754632
629,629,-0.06506991172542809,-0.1,1,493.0,985.0,1.0,1182.0,1,0.4256257494282433
630,630,-0.1759887514472489,-0.2,1,252.0,864.0,0.0,304.0,0,0.49638820545119117
631,631,0.8236595435387843,0.8,0,350.0,944.0,0.0,256.0,1,0.31667481308479184
632,632,0.011823430481424202,0.0,0,397.0,973.0,0.0,1180.0,1,0.2977348879599995
633,633,-0.20102166291804036,-0.2,1,292.0,722.0,0.0,-284.0,0,0.4987605815982216
634,634,0.6568092207919096,0.7,0,424.0,874.0,0.0,142.0,1,0.3524765735593294
635,635,0.44309290074555396,0.4,0,493.0,927.0,0.0,-1300.0,1,0.4903282531755169
636,636,0.982370076937668,1.0,0,389.0,876.0,0.0,145.0,1,0.22222527098845787
637,637,-0.12110953635776989,-0.1,1,298.0,634.0,1.0,638.0,1,0.27832800852968026
638,638,-0.8382502606674089,-0.8,1,444.0,698.0,1.0,168.0,1,0.422705831914725
639,639,0.3099015008379997,0.3,0,374.0,595.0,0.0,211.0,1,0.3172855293310944
640,640,0.40021651997713614,0.4,0,470.0,725.0,0.0,275.0,1,0.4411339134427582
641,641,-0.43479787424222094,-0.4,1,425.0,851.0,1.0,274.0,1,0.2833122363667463
642,642,-0.28844555403352556,-0.3,1,381.0,774.0,1.0,385.0,1,0.4011195018912566
643,643,-0.5352247665122758,-0.5,1,262.0,592.0,1.0,606.0,1,0.4645805947416303
644,644,0.9484965711842337,0.9,0,449.0,643.0,0.0,158.0,1,0.2913779872759573
645,645,0.9350681691932929,0.9,0,447.0,527.0,0.0,136.0,1,0.40558803105978575
646,646,-0.38067326158633685,-0.4,1,446.0,591.0,1.0,363.0,1,0.4430021363914858
647,647,0.7895489321579248,0.8,0,471.0,864.0,0.0,175.0,1,0.2351207681169587
648,648,-0.8896813313907102,-0.9,1,407.0,946.0,1.0,227.0,1,0.4482087888923222
649,649,0.8973844780967306,0.9,0,421.0,738.0,0.0,241.0,1,0.3645406278022363
650,650,-0.7713195697487738,-0.8,1,469.0,540.0,1.0,231.0,1,0.4518764974526094
651,651,-0.5875860441716305,-0.6,1,459.0,722.0,1.0,559.0,1,0.2355080461721929
652,652,-0.36390491162189553,-0.4,1,307.0,853.0,1.0,490.0,1,0.39118309601444634
653,653,0.036539337662465865,0.0,0,282.0,770.0,0.0,768.0,1,0.4023724971079824
654,654,-0.16114103443265004,-0.2,1,332.0,595.0,1.0,263.0,1,0.2981916373265945
655,655,0.9226438521415294,0.9,0,302.0,735.0,0.0,523.0,1,0.20319356395571003
656,656,0.024831202379681727,0.0,0,488.0,773.0,0.0,799.0,1,0.2587718213300372
657,657,-0.1676376175563974,-0.2,1,267.0,883.0,1.0,510.0,1,0.3789915628965934
658,658,0.5302656966500987,0.5,0,403.0,871.0,0.0,356.0,1,0.42121409586992065
659,659,-0.1317520177864655,-0.1,1,266.0,963.0,1.0,581.0,1,0.469877354545948
660,660,-0.7068502849088305,-0.7,1,369.0,566.0,1.0,405.0,1,0.20277221323776928
661,661,-0.6055778564207634,-0.6,1,444.0,768.0,1.0,628.0,1,0.48845249137741253
662,662,-0.2028884759109879,-0.2,1,443.0,501.0,1.0,786.0,1,0.4435888171435498
663,663,0.6716864150408972,0.7,0,496.0,548.0,0.0,316.0,1,0.25171579112460957
664,664,-0.6813992078146536,-0.7,1,309.0,645.0,1.0,246.0,1,0.34744459605917427
665,665,-0.609560615070672,-0.6,1,299.0,504.0,1.0,297.0,1,0.20738653869840332
666,666,0.8201084719315821,0.8,0,311.0,874.0,0.0,295.0,1,0.4202084211907162
667,667,-0.7121445557959534,-0.7,1,495.0,856.0,1.0,389.0,1,0.49127467544868536
668,668,-0.026087149049960123,-0.0,1,408.0,797.0,0.0,335.0,0,0.4692599762666113
669,669,-0.7301660673360968,-0.7,1,447.0,573.0,1.0,260.0,1,0.31881920294148736
670,670,0.1484791442153759,0.1,0,423.0,899.0,0.0,598.0,1,0.4591396776618452
671,671,-0.8394190143116955,-0.8,1,480.0,982.0,1.0,198.0,1,0.30302375586809854
672,672,-0.5488749157606367,-0.5,1,470.0,581.0,1.0,189.0,1,0.44086097766523735
673,673,0.34843559877183083,0.3,0,268.0,519.0,0.0,43.0,1,0.4504955354771088
674,674,0.8351325360228921,0.8,0,414.0,736.0,0.0,110.0,1,0.33588464206663704
675,675,0.2005336895430041,0.2,0,463.0,650.0,0.0,427.0,1,0.32718734826787255
676,676,0.8870064480012501,0.9,0,467.0,909.0,0.0,224.0,1,0.32285227793698434
677,677,-0.7105133466717493,-0.7,1,275.0,824.0,1.0,221.0,1,0.249425456656959
678,678,0.9571663745192815,1.0,0,321.0,843.0,0.0,106.0,1,0.4554484009357981
679,679,0.3748399732262204,0.4,0,497.0,945.0,0.0,558.0,1,0.30529928022198893
680,680,-0.46538937250745205,-0.5,1,391.0,810.0,1.0,339.0,1,0.3781415991898542
681,681,-0.36511483135309386,-0.4,1,375.0,508.0,1.0,477.0,1,0.4611721298292535
682,682,0.5608935263988848,0.6,0,372.0,591.0,0.0,317.0,1,0.4988400378497298
683,683,-0.9350566160418126,-0.9,1,358.0,678.0,1.0,184.0,1,0.3471459184731054
684,684,-0.378951053005808,-0.4,1,467.0,781.0,1.0,322.0,1,0.25878882276132276
685,685,-0.6298591689278497,-0.6,1,424.0,660.0,1.0,266.0,1,0.20987720282070746
686,686,-0.7433852010670332,-0.7,1,358.0,880.0,1.0,252.0,1,0.36380220358445436
687,687,0.9623476716795589,1.0,0,304.0,634.0,0.0,232.0,1,0.3864750545513098
688,688,0.24880072001232123,0.2,0,259.0,960.0,0.0,651.0,1,0.334465672956728
689,689,0.7891689654036311,0.8,0,428.0,592.0,0.0,230.0,1,0.24359678985572963
690,690,-0.24529004108078079,-0.2,1,273.0,547.0,1.0,520.0,1,0.3817042796470814
691,691,0.039809947473833596,0.0,0,491.0,930.0,0.0,679.0,1,0.31359293853472625
692,692,0.3295586599639233,0.3,0,389.0,824.0,0.0,247.0,1,0.41809512599926735
693,693,0.006814828397785355,0.0,0,371.0,921.0,0.0,348.0,1,0.20644659699850432
694,694,-0.7156019147282662,-0.7,1,446.0,730.0,1.0,254.0,1,0.33609461280419856
695,695,-0.07399041676271878,-0.1,1,372.0,972.0,0.0,1606.0,0,0.3511412017509099
696,696,-0.30486095619545917,-0.3,1,276.0,813.0,1.0,391.0,1,0.2109911523141076
697,697,0.03690077045684381,0.0,0,334.0,633.0,0.0,853.0,1,0.293774854310077
698,698,-0.7438177903456127,-0.7,1,419.0,728.0,1.0,353.0,1,0.3538811375884043
699,699,-0.664687924336252,-0.7,1,402.0,641.0,1.0,187.0,1,0.38158164314345216
700,700,-0.7135956348900336,-0.7,1,380.0,785.0,1.0,495.0,1,0.3910898254726257
701,701,-0.9838303744906125,-1.0,1,496.0,535.0,1.0,249.0,1,0.2913347102770617
702,702,0.5691727049356314,0.6,0,362.0,786.0,0.0,492.0,1,0.4738614661366943
703,703,0.20216837391197706,0.2,0,489.0,997.0,1.0,244.0,0,0.49254893477203116
704,704,-0.25027312022254233,-0.3,1,321.0,886.0,1.0,643.0,1,0.30905267634966527
705,705,0.9441992369515695,0.9,0,365.0,617.0,0.0,208.0,1,0.26010707456228876
706,706,0.834372088133553,0.8,0,305.0,500.0,0.0,325.0,1,0.24962093094422957
707,707,-0.953824931597268,-1.0,1,252.0,829.0,1.0,199.0,1,0.27989624119847123
708,708,-0.5201447090197899,-0.5,1,477.0,863.0,1.0,250.0,1,0.21020582262391094
709,709,0.917832645861395,0.9,0,415.0,583.0,0.0,262.0,1,0.37477042300950925
710,710,-0.038308859985277666,-0.0,1,415.0,708.0,0.0,1197.0,0,0.3927246930902121
711,711,0.18197675842644045,0.2,0,359.0,752.0,0.0,619.0,1,0.2536228646216809
712,712,-0.8765443016726275,-0.9,1,322.0,751.0,1.0,187.0,1,0.34602089345821696
713,713,0.17357927870821377,0.2,0,280.0,668.0,0.0,552.0,1,0.4136789755427922
714,714,-0.8255845822993788,-0.8,1,295.0,829.0,1.0,156.0,1,0.27652242480986244
715,715,0.38978235883907986,0.4,0,391.0,778.0,0.0,-439.0,1,0.4671302833675874
716,716,-0.23021496002090203,-0.2,1,366.0,866.0,0.0,-762.0,0,0.41432716109038825
717,717,0.7951290236899258,0.8,0,374.0,999.0,0.0,-1023.0,1,0.4685065870178961
718,718,0.2868125189175732,0.3,0,464.0,501.0,0.0,465.0,1,0.21023516431773606
719,719,0.8272975760891117,0.8,0,308.0,954.0,0.0,508.0,1,0.23987219655456493
720,720,0.8830592837693525,0.9,0,366.0,973.0,0.0,251.0,1,0.40035128063974235
721,721,0.5273521624823139,0.5,0,316.0,963.0,0.0,301.0,1,0.30824676775305204
722,722,-0.6225396603146733,-0.6,1,409.0,989.0,1.0,362.0,1,0.38515115391362353
723,723,0.13978155815768556,0.1,0,339.0,995.0,1.0,276.0,0,0.3997655631073903
724,724,-0.9041605716192109,-0.9,1,413.0,784.0,1.0,233.0,1,0.24500326856238427
725,725,-0.3262876359922122,-0.3,1,461.0,928.0,1.0,571.0,1,0.26971523065059383
726,726,0.08740098284829134,0.1,0,312.0,557.0,0.0,571.0,1,0.3049185624721314
727,727,-0.309977235306399,-0.3,1,315.0,748.0,1.0,877.0,1,0.4653943138892389
728,728,-0.5141658593492557,-0.5,1,417.0,961.0,1.0,222.0,1,0.36543107184308254
729,729,0.11269998901312328,0.1,0,272.0,605.0,0.0,1103.0,1,0.2847509711381403
730,730,-0.035903163880891986,-0.0,1,297.0,603.0,1.0,410.0,1,0.4820961012704777
731,731,0.5544369056558553,0.6,0,347.0,652.0,0.0,481.0,1,0.3711134664553627
732,732,0.6137104025204829,0.6,0,432.0,903.0,0.0,415.0,1,0.21765158146622418
733,733,-0.8747461027516057,-0.9,1,367.0,505.0,1.0,238.0,1,0.46506091233889474
734,734,0.3318354889226993,0.3,0,418.0,684.0,0.0,218.0,1,0.4514635588995642
735,735,0.21558092026250986,0.2,0,338.0,719.0,0.0,243.0,1,0.3750486243125713
736,736,0.11029073845041615,0.1,0,266.0,723.0,1.0,1501.0,0,0.20487086122557907
737,737,0.3584327066200299,0.4,0,453.0,802.0,0.0,245.0,1,0.30396712884956445
738,738,-0.7385290399627547,-0.7,1,259.0,665.0,1.0,286.0,1,0.30210330207103386
739,739,-0.7370490652792343,-0.7,1,361.0,857.0,1.0,202.0,1,0.24921593995214902
740,740,-0.4274333639174488,-0.4,1,373.0,966.0,1.0,531.0,1,0.2628369642459739
741,741,0.2452725980398136,0.2,0,408.0,643.0,0.0,719.0,1,0.3647974465078353
742,742,0.6668418276359191,0.7,0,475.0,566.0,0.0,-661.0,1,0.43356657321056646
743,743,0.7792593862141215,0.8,0,333.0,663.0,0.0,204.0,1,0.4328779578690231
744,744,0.4317643982905408,0.4,0,323.0,698.0,0.0,279.0,1,0.41089550840373823
745,745,0.4129779142568841,0.4,0,422.0,911.0,0.0,527.0,1,0.42048229750772187
746,746,-0.26118410895648436,-0.3,1,379.0,942.0,1.0,1409.0,1,0.49536784460841726
747,747,0.07375724678779982,0.1,0,321.0,755.0,1.0,484.0,0,0.32812223343728136
748,748,0.5415296944530927,0.5,0,353.0,708.0,0.0,189.0,1,0.48354321532810346
749,749,0.569126379148658,0.6,0,304.0,719.0,0.0,37.0,1,0.471686946996045
750,750,0.29812512121758683,0.3,0,355.0,632.0,0.0,473.0,1,0.32764745474693013
751,751,-0.6895833561496214,-0.7,1,402.0,988.0,1.0,460.0,1,0.36238387199018895
752,752,0.8497831485984042,0.8,0,484.0,664.0,0.0,392.0,1,0.29964615332826505
753,753,-0.4660882203654746,-0.5,1,327.0,909.0,1.0,364.0,1,0.3107185751722499
754,754,0.6110577294852606,0.6,0,315.0,788.0,0.0,337.0,1,0.294588732151463
755,755,0.07327504831187204,0.1,0,338.0,578.0,0.0,964.0,1,0.2618980180638216
756,756,0.9549503303602143,1.0,0,423.0,824.0,0.0,83.0,1,0.36137952063998113
757,757,-0.001347175682847368,-0.0,1,324.0,641.0,0.0,1035.0,0,0.36780348720366574
758,758,0.27660897799682505,0.3,0,459.0,526.0,0.0,275.0,1,0.44688245511310165
759,759,-0.4088424936339161,-0.4,1,415.0,852.0,1.0,373.0,1,0.28114823344966366
760,760,0.11083093896094631,0.1,0,365.0,657.0,0.0,428.0,1,0.4194749553238339
761,761,0.5706498025374169,0.6,0,439.0,758.0,0.0,263.0,1,0.26337334356299247
762,762,0.16181991069786217,0.2,0,433.0,724.0,0.0,513.0,1,0.3708410724748733
763,763,-0.23280012460762345,-0.2,1,263.0,664.0,1.0,273.0,1,0.36313646342946215
764,764,0.8269903165261498,0.8,0,304.0,674.0,0.0,212.0,1,0.25290311588647396
765,765,0.3141307493201855,0.3,0,454.0,550.0,0.0,516.0,1,0.20182032346303966
766,766,-0.5600421950483745,-0.6,1,410.0,594.0,1.0,496.0,1,0.24529273814734845
767,767,0.6474504462657162,0.6,0,416.0,540.0,0.0,244.0,1,0.4975422824754438
768,768,-0.07750525424547594,-0.1,1,407.0,564.0,0.0,349.0,0,0.38413487874969954
769,769,0.23975089915963244,0.2,0,477.0,573.0,0.0,220.0,1,0.49494671919160693
770,770,0.3966648260415797,0.4,0,465.0,701.0,0.0,514.0,1,0.3962792070920928
771,771,0.0942188131059809,0.1,0,292.0,570.0,0.0,648.0,1,0.42145236275141995
772,772,0.3967357491556047,0.4,0,358.0,615.0,0.0,237.0,1,0.2421956813998704
773,773,0.3834168785522438,0.4,0,318.0,927.0,0.0,525.0,1,0.21997460534226948
774,774,0.8353593730913527,0.8,0,445.0,670.0,0.0,195.0,1,0.24805365360021278
775,775,0.9982867677210587,1.0,0,473.0,546.0,0.0,221.0,1,0.22158083185973562
776,776,0.5023621336063375,0.5,0,484.0,787.0,0.0,379.0,1,0.3211987315751326
777,777,0.5481061536629399,0.5,0,440.0,729.0,0.0,161.0,1,0.35232523816692285
778,778,-0.7292130282276623,-0.7,1,432.0,980.0,1.0,348.0,1,0.28223702443698917
779,779,0.4444112553869508,0.4,0,412.0,983.0,0.0,-175.0,1,0.4979847489226328
780,780,-0.05432033840176009,-0.1,1,283.0,753.0,0.0,684.0,0,0.27137498411336314
781,781,-0.40499740530495476,-0.4,1,395.0,666.0,1.0,579.0,1,0.4377991435780021
782,782,0.4419467749514845,0.4,0,491.0,776.0,0.0,453.0,1,0.2527044388424979
783,783,0.5405665374129114,0.5,0,423.0,518.0,0.0,99.0,1,0.48326401040981887
784,784,-0.8926315651937693,-0.9,1,346.0,958.0,0.0,-414.0,0,0.48291353212394583
785,785,-0.2836177313133401,-0.3,1,338.0,524.0,1.0,268.0,1,0.32350643350700325
786,786,0.6737503420456095,0.7,0,374.0,793.0,0.0,333.0,1,0.29550217740945856
787,787,-0.206413473314764,-0.2,1,349.0,996.0,0.0,345.0,0,0.45582249581751216
788,788,-0.32647476417230936,-0.3,1,471.0,835.0,1.0,424.0,1,0.23901820318911254
789,789,0.46095010245399215,0.5,0,419.0,702.0,0.0,139.0,1,0.3126174797977962
790,790,-0.4454497778767985,-0.4,1,315.0,782.0,1.0,383.0,1,0.24460047972072424
791,791,0.3266244528364344,0.3,0,295.0,506.0,0.0,379.0,1,0.20175161057233099
792,792,-0.6904684868717306,-0.7,1,280.0,862.0,1.0,228.0,1,0.3457981711951743
793,793,0.5817958187561763,0.6,0,433.0,917.0,0.0,230.0,1,0.4421281736207795
794,794,0.26156082561188265,0.3,0,275.0,559.0,0.0,456.0,1,0.3515748955274615
795,795,0.4395919608329435,0.4,0,305.0,734.0,0.0,111.0,1,0.4784092282612013
796,796,0.8620785615743745,0.9,0,334.0,928.0,0.0,328.0,1,0.32937284905647385
797,797,0.3073354433290574,0.3,0,457.0,554.0,0.0,359.0,1,0.2969397408917883
798,798,-0.6009632830980693,-0.6,1,435.0,535.0,1.0,230.0,1,0.42720413792950157
799,799,-0.37606858801604437,-0.4,1,450.0,519.0,1.0,191.0,1,0.21264003780261526
800,800,0.8922423768440848,0.9,0,369.0,961.0,0.0,500.0,1,0.21423852148113334
801,801,-0.8566376088881773,-0.9,1,334.0,669.0,1.0,287.0,1,0.4185156842732247
802,802,-0.29958135473664904,-0.3,1,383.0,564.0,1.0,863.0,1,0.44651002062784173
803,803,0.16603468829504897,0.2,0,428.0,647.0,0.0,515.0,1,0.3894252645436831
804,804,0.4340355333013213,0.4,0,312.0,711.0,0.0,377.0,1,0.2592769604088969
805,805,0.39063866454259544,0.4,0,442.0,970.0,0.0,158.0,1,0.22714065144026638
806,806,-0.003629749640058799,-0.0,1,341.0,905.0,0.0,484.0,0,0.45482329350212813
807,807,-0.46564861597918306,-0.5,1,335.0,574.0,1.0,501.0,1,0.3233688154312892
808,808,-0.6593599012557327,-0.7,1,309.0,853.0,0.0,-182.0,0,0.49031492849448394
809,809,0.4416443860059396,0.4,0,444.0,828.0,0.0,298.0,1,0.2128452798735327
810,810,-0.8136351906382269,-0.8,1,258.0,513.0,1.0,169.0,1,0.4134942543389263
811,811,0.0026411039020945992,0.0,0,439.0,881.0,0.0,940.0,1,0.3083605657650958
812,812,0.5424559774837581,0.5,0,400.0,648.0,0.0,222.0,1,0.3317530179739274
813,813,0.04023182375664924,0.0,0,350.0,672.0,0.0,198.0,1,0.39307922336856266
814,814,-0.2240075410913429,-0.2,1,384.0,532.0,1.0,314.0,1,0.3831416201281912
815,815,0.20728350750087143,0.2,0,441.0,939.0,0.0,790.0,1,0.417335786074605
816,816,-0.13737774839197825,-0.1,1,360.0,996.0,1.0,514.0,1,0.20744877673301418
817,817,0.5974803102142188,0.6,0,304.0,912.0,0.0,204.0,1,0.21269424603202303
818,818,-0.9550841508931309,-1.0,1,285.0,551.0,1.0,394.0,1,0.3261774836550446
819,819,-0.4182184029437799,-0.4,1,486.0,915.0,1.0,189.0,1,0.42186707920401045
820,820,-0.9721938664244465,-1.0,1,377.0,855.0,1.0,248.0,1,0.2564318556905204
821,821,0.1068478319460624,0.1,0,270.0,598.0,0.0,622.0,1,0.3097681620345114
822,822,-0.8047640012589605,-0.8,1,348.0,560.0,1.0,222.0,1,0.20146135648037528
823,823,0.9751044236777433,1.0,0,420.0,981.0,0.0,189.0,1,0.39310587271174513
824,824,-0.37580863158227684,-0.4,1,296.0,585.0,1.0,629.0,1,0.311164759307772
825,825,0.5545658888836407,0.6,0,367.0,733.0,0.0,330.0,1,0.37432417057609507
826,826,-0.9845150901041462,-1.0,1,252.0,876.0,1.0,172.0,1,0.2814964902427408
827,827,-0.7458373396889819,-0.7,1,427.0,692.0,1.0,221.0,1,0.4260560537467472
828,828,-0.4332636999877457,-0.4,1,340.0,788.0,0.0,-628.0,0,0.494218320552311
829,829,-0.8557150232138733,-0.9,1,384.0,536.0,1.0,230.0,1,0.30213221268201973
830,830,0.29688423587713664,0.3,0,366.0,942.0,0.0,502.0,1,0.23345984536705042
831,831,-0.8568027673927383,-0.9,1,493.0,735.0,1.0,282.0,1,0.3944802980401588
832,832,0.6402487868178877,0.6,0,251.0,658.0,0.0,151.0,1,0.4446938497350152
833,833,0.46799384890564544,0.5,0,317.0,779.0,0.0,434.0,1,0.34515795718227893
834,834,0.36199779369463014,0.4,0,324.0,555.0,0.0,341.0,1,0.3431208954853386
835,835,0.37966493541147117,0.4,0,401.0,834.0,0.0,325.0,1,0.242061670526468
836,836,0.31420397060807126,0.3,0,487.0,973.0,0.0,220.0,1,0.42015948556072485
837,837,-0.7403826514326339,-0.7,1,267.0,852.0,1.0,421.0,1,0.4273370738866739
838,838,0.5027714022513503,0.5,0,336.0,997.0,0.0,397.0,1,0.22495679063199367
839,839,0.14912711592976802,0.1,0,495.0,860.0,0.0,765.0,1,0.36482510822227104
840,840,0.7974093793072385,0.8,0,311.0,872.0,0.0,237.0,1,0.21467668282282004
841,841,0.21680070001021723,0.2,0,284.0,835.0,0.0,401.0,1,0.2596519959727109
842,842,-0.39194093548304787,-0.4,1,483.0,764.0,1.0,663.0,1,0.45551947128684744
843,843,-0.15007925416242784,-0.2,1,256.0,818.0,1.0,396.0,1,0.26557310393715905
844,844,0.4532264665377317,0.5,0,280.0,966.0,0.0,464.0,1,0.261198094617628
845,845,-0.019367304316292966,-0.0,1,251.0,914.0,1.0,215.0,1,0.3399643785650527
846,846,0.8717717531968738,0.9,0,265.0,918.0,0.0,307.0,1,0.3488828901821301
847,847,0.20183954062885956,0.2,0,425.0,845.0,0.0,110.0,1,0.3416021447806108
848,848,-0.47753437738249827,-0.5,1,361.0,578.0,1.0,291.0,1,0.39559760714863945
849,849,0.19392521188177447,0.2,0,433.0,536.0,0.0,271.0,1,0.28959737073149294
850,850,0.0743305637462166,0.1,0,471.0,527.0,0.0,1162.0,1,0.24351054488308507
851,851,0.6961416367892435,0.7,0,355.0,869.0,0.0,156.0,1,0.24029244168555763
852,852,-0.08870679409510229,-0.1,1,360.0,994.0,0.0,536.0,0,0.49734930140949524
853,853,-0.634673017674126,-0.6,1,388.0,543.0,1.0,519.0,1,0.396877621834391
854,854,0.923291406355967,0.9,0,333.0,554.0,0.0,93.0,1,0.34185244468773945
855,855,-0.13543164368601612,-0.1,1,401.0,776.0,1.0,733.0,1,0.2201574829755975
856,856,0.4554589381654337,0.5,0,405.0,622.0,0.0,373.0,1,0.33428853484775045
857,857,-0.9617952292634835,-1.0,1,416.0,632.0,1.0,212.0,1,0.453579567802594
858,858,-0.9506887997064104,-1.0,1,340.0,912.0,1.0,208.0,1,0.3354094022072624
859,859,-0.30914758707158785,-0.3,1,272.0,621.0,1.0,337.0,1,0.33690645124871516
860,860,0.45824909874603637,0.5,0,455.0,976.0,0.0,259.0,1,0.266671081186182
861,861,0.5042786025081498,0.5,0,278.0,767.0,0.0,195.0,1,0.3803926649869196
862,862,0.2638122456460892,0.3,0,330.0,537.0,0.0,303.0,1,0.32021258140118986
863,863,0.8325205233473851,0.8,0,478.0,599.0,0.0,133.0,1,0.406064509219784
864,864,0.24353796905270886,0.2,0,412.0,802.0,0.0,376.0,1,0.3505383360369585
865,865,0.8333889491982565,0.8,0,285.0,602.0,0.0,103.0,1,0.3942971525752383
866,866,0.8981015783052266,0.9,0,351.0,585.0,0.0,144.0,1,0.40396980939328875
867,867,-0.7422960190974497,-0.7,1,458.0,780.0,1.0,212.0,1,0.23296024543767097
868,868,0.5365849547467993,0.5,0,316.0,954.0,0.0,450.0,1,0.3336365025605408
869,869,0.4737108697266308,0.5,0,306.0,561.0,0.0,443.0,1,0.21885145577682785
870,870,0.892365859298345,0.9,0,259.0,735.0,0.0,126.0,1,0.48840268977901014
871,871,-0.2766385050370854,-0.3,1,289.0,609.0,1.0,362.0,1,0.36263290835042616
872,872,0.9528997617867696,1.0,0,320.0,709.0,0.0,281.0,1,0.47773926392782284
873,873,0.11073494073906631,0.1,0,294.0,877.0,0.0,489.0,1,0.2133525338005036
874,874,0.29540478633886624,0.3,0,405.0,894.0,0.0,611.0,1,0.33325471711058297
875,875,0.996685628513674,1.0,0,421.0,886.0,0.0,233.0,1,0.2946907048344004
876,876,-0.8475189264451224,-0.8,1,339.0,592.0,1.0,239.0,1,0.24065929504398417
877,877,0.15412831172634367,0.2,0,264.0,654.0,0.0,1302.0,1,0.4663368287403648
878,878,-0.6722864789767267,-0.7,1,497.0,647.0,1.0,256.0,1,0.2859502305840848
879,879,0.09784127330721781,0.1,0,276.0,514.0,0.0,470.0,1,0.3376960575343415
880,880,0.21242215582424784,0.2,0,270.0,957.0,0.0,353.0,1,0.32813683983660674
881,881,0.1618158089682198,0.2,0,467.0,949.0,0.0,214.0,1,0.28749804627468695
882,882,0.15608883366120008,0.2,0,265.0,876.0,0.0,479.0,1,0.2746861611984239
883,883,0.5742250086460863,0.6,0,435.0,551.0,0.0,164.0,1,0.23818752533949586
884,884,0.8152017568067331,0.8,0,367.0,760.0,0.0,143.0,1,0.22560339488328437
885,885,0.9442825134698147,0.9,0,344.0,822.0,0.0,174.0,1,0.27346919899890765
886,886,0.5196617022879129,0.5,0,378.0,571.0,0.0,481.0,1,0.4882284352204717
887,887,-0.3350769734171015,-0.3,1,498.0,619.0,1.0,463.0,1,0.36287272611504306
888,888,0.2133156515987531,0.2,0,355.0,835.0,0.0,410.0,1,0.31866542685237365
889,889,-0.634697546169168,-0.6,1,470.0,752.0,1.0,338.0,1,0.3414177281386057
890,890,-0.5690957459339061,-0.6,1,499.0,918.0,1.0,283.0,1,0.3163052151999418
891,891,-0.8530607883203385,-0.9,1,350.0,706.0,1.0,204.0,1,0.4395233792610172
892,892,-0.6631394394611874,-0.7,1,332.0,574.0,1.0,294.0,1,0.4457242724465927
893,893,0.9809155603287183,1.0,0,413.0,578.0,0.0,109.0,1,0.464394575987102
894,894,-0.6493539716713628,-0.6,1,368.0,962.0,1.0,290.0,1,0.4351924289510367
895,895,0.7674702551125012,0.8,0,369.0,579.0,0.0,232.0,1,0.2787966024909335
896,896,0.7525785243893073,0.8,0,430.0,712.0,0.0,228.0,1,0.33491482606786815
897,897,-0.20003708017115485,-0.2,1,395.0,506.0,1.0,729.0,1,0.2600918171865748
898,898,0.9882318566484887,1.0,0,323.0,564.0,0.0,293.0,1,0.34245254922562207
899,899,-0.19132147209989792,-0.2,1,300.0,939.0,1.0,1071.0,1,0.3654913638221348
900,900,0.14520641354629205,0.1,0,463.0,725.0,0.0,392.0,1,0.35224010662718774
901,901,0.09874953639493222,0.1,0,475.0,536.0,0.0,689.0,1,0.36533047019990694
902,902,0.714948073590354,0.7,0,312.0,918.0,0.0,150.0,1,0.31492266425636833
903,903,0.4108542211923891,0.4,0,471.0,532.0,0.0,217.0,1,0.3294874074846052
904,904,0.35400070520486304,0.4,0,278.0,792.0,0.0,160.0,1,0.4980906834757074
905,905,0.37883942373664015,0.4,0,277.0,502.0,0.0,501.0,1,0.2244397120487517
906,906,-0.8697831060290377,-0.9,1,374.0,529.0,1.0,217.0,1,0.2881897809380983
907,907,0.8965840352218033,0.9,0,379.0,832.0,0.0,189.0,1,0.4789393833069928
908,908,-0.12324176098728956,-0.1,1,355.0,612.0,0.0,563.0,0,0.23505166629429722
909,909,0.7000739940865051,0.7,0,344.0,538.0,0.0,178.0,1,0.48869957898534283
910,910,0.6599599643456606,0.7,0,443.0,661.0,0.0,246.0,1,0.44716039579025096
911,911,-0.4051065443065105,-0.4,1,353.0,689.0,1.0,688.0,1,0.4267713034026931
912,912,-0.9441320770706179,-0.9,1,465.0,682.0,1.0,203.0,1,0.41899535637529084
913,913,-0.48532593543329083,-0.5,1,283.0,880.0,1.0,337.0,1,0.23359614889263003
914,914,-0.5105458881690983,-0.5,1,336.0,882.0,1.0,292.0,1,0.3120818705034199
915,915,0.7393405659260064,0.7,0,469.0,667.0,0.0,54.0,1,0.4909649458913543
916,916,0.16430707331626082,0.2,0,459.0,939.0,0.0,622.0,1,0.42067185206620605
917,917,0.824639173217345,0.8,0,388.0,759.0,0.0,203.0,1,0.4146603262074029
918,918,0.2529679838336705,0.3,0,354.0,923.0,0.0,83.0,1,0.46035732538883195
919,919,-0.3988296027101339,-0.4,1,418.0,971.0,1.0,321.0,1,0.48266441046908953
920,920,0.4501792776323925,0.5,0,482.0,750.0,0.0,538.0,1,0.35721041028252465
921,921,-0.7461520066768184,-0.7,1,290.0,915.0,1.0,215.0,1,0.3363391204442385
922,922,0.5796556968124713,0.6,0,309.0,758.0,0.0,353.0,1,0.22631724629892144
923,923,-0.06062628059159758,-0.1,1,435.0,932.0,0.0,473.0,0,0.45287399685659396
924,924,-0.6487072964249592,-0.6,1,363.0,884.0,1.0,353.0,1,0.46441012295627226
925,925,-0.23346612153781088,-0.2,1,310.0,530.0,1.0,860.0,1,0.4209987314129081
926,926,-0.08574677549901533,-0.1,1,497.0,684.0,1.0,1699.0,1,0.28955901133235473
927,927,-0.26029706211713877,-0.3,1,374.0,717.0,1.0,649.0,1,0.44667138417279595
928,928,0.6068362867775245,0.6,0,494.0,745.0,0.0,-589.0,1,0.48142513208435805
929,929,0.5822451638914785,0.6,0,308.0,656.0,0.0,256.0,1,0.22178525012498776
930,930,0.06577786142710607,0.1,0,261.0,807.0,0.0,322.0,1,0.2233995666273174
931,931,0.6334693141435732,0.6,0,306.0,942.0,0.0,352.0,1,0.4102279092328193
932,932,0.349131219747862,0.3,0,383.0,926.0,0.0,201.0,1,0.39541867403393005
933,933,-0.19088598326113515,-0.2,1,421.0,619.0,1.0,1020.0,1,0.22857676120457732
934,934,-0.5058623233992496,-0.5,1,425.0,542.0,1.0,563.0,1,0.44140913653017
935,935,-0.5823557213687252,-0.6,1,319.0,815.0,0.0,-14.0,0,0.3977629069049693
936,936,-0.23675540814459928,-0.2,1,320.0,604.0,1.0,356.0,1,0.22116585322877497
937,937,-0.6704362467020057,-0.7,1,359.0,854.0,1.0,757.0,1,0.27631533656180857
938,938,0.8405758008845103,0.8,0,297.0,574.0,0.0,179.0,1,0.3953351700028743
939,939,0.639662172217784,0.6,0,317.0,640.0,0.0,253.0,1,0.3352574976440109
940,940,-0.1603360042574664,-0.2,1,346.0,955.0,0.0,939.0,0,0.49261823565728197
941,941,-0.8728062443369868,-0.9,1,440.0,500.0,1.0,350.0,1,0.2470833616049911
942,942,-0.10659353464342303,-0.1,1,312.0,888.0,0.0,230.0,0,0.28298804096104546
943,943,-0.6253342458202433,-0.6,1,449.0,594.0,1.0,197.0,1,0.22078146063388826
944,944,-0.7076842750505679,-0.7,1,314.0,873.0,1.0,213.0,1,0.37665218025352626
945,945,0.840010742754493,0.8,0,269.0,877.0,0.0,314.0,1,0.23171157168111586
946,946,0.7478255940626912,0.7,0,304.0,885.0,0.0,101.0,1,0.4746742070820412
947,947,0.8155015361187106,0.8,0,394.0,883.0,0.0,143.0,1,0.4532451889662068
948,948,-0.3321887634787115,-0.3,1,388.0,976.0,1.0,756.0,1,0.3541396657444562
949,949,0.49361041563722496,0.5,0,383.0,935.0,0.0,122.0,1,0.44493633150148476
950,950,-0.8298886823838874,-0.8,1,400.0,950.0,1.0,220.0,1,0.4467542379828233
951,951,-0.08142455927781755,-0.1,1,274.0,682.0,1.0,754.0,1,0.44657649607928673
952,952,0.44920641572644526,0.4,0,284.0,972.0,0.0,304.0,1,0.3426015602069049
953,953,-0.35869797620668886,-0.4,1,441.0,888.0,1.0,331.0,1,0.35338560371852373
954,954,-0.6819565547546964,-0.7,1,486.0,778.0,1.0,626.0,1,0.3094453452454872
955,955,0.27853270483059744,0.3,0,404.0,765.0,0.0,321.0,1,0.41054674781768563
956,956,0.4314523466645668,0.4,0,327.0,959.0,0.0,194.0,1,0.4555581240153741
957,957,0.6469724585169851,0.6,0,437.0,956.0,0.0,-1083.0,1,0.44546373247880344
958,958,-0.44057900263190963,-0.4,1,315.0,632.0,1.0,413.0,1,0.45490720468503026
959,959,-0.48170496372744376,-0.5,1,383.0,601.0,1.0,796.0,1,0.23947230895951982
960,960,0.24809283706093344,0.2,0,459.0,654.0,0.0,627.0,1,0.35077090295650526
961,961,-0.5092728924447376,-0.5,1,336.0,531.0,1.0,343.0,1,0.3860815454363983
962,962,-0.9610105465223824,-1.0,1,498.0,744.0,1.0,168.0,1,0.4505822288796433
963,963,0.18763019360655098,0.2,0,333.0,574.0,0.0,193.0,1,0.40149493680230464
964,964,-0.3342457417293365,-0.3,1,395.0,767.0,1.0,348.0,1,0.472131962497885
965,965,-0.5643770152890872,-0.6,1,302.0,953.0,1.0,235.0,1,0.3233533693276492
966,966,-0.7865423347913381,-0.8,1,325.0,716.0,1.0,199.0,1,0.2745332941956157
967,967,-0.5968405876623268,-0.6,1,474.0,913.0,1.0,363.0,1,0.3540181091693255
968,968,0.8106252920748087,0.8,0,475.0,624.0,0.0,271.0,1,0.23985033991932161
969,969,0.11237029916790964,0.1,0,347.0,904.0,0.0,619.0,1,0.4461056154134117
970,970,0.060868199396517886,0.1,0,297.0,802.0,0.0,381.0,1,0.29023537284890677
971,971,-0.23454964121157684,-0.2,1,482.0,596.0,1.0,312.0,1,0.45520498460438674
972,972,0.9854631282388284,1.0,0,310.0,622.0,0.0,208.0,1,0.3871386268788899
973,973,0.678154307429671,0.7,0,473.0,633.0,0.0,184.0,1,0.3677226336791931
974,974,-0.13182556900066578,-0.1,1,483.0,868.0,1.0,409.0,1,0.2645658032210123
975,975,-0.3038096493357574,-0.3,1,462.0,879.0,1.0,319.0,1,0.33200816559055607
976,976,0.14656098409422968,0.1,0,403.0,648.0,0.0,579.0,1,0.43256535878103625
977,977,0.8140160759085966,0.8,0,463.0,650.0,0.0,157.0,1,0.49028782065434195
978,978,0.05550908965550261,0.1,0,280.0,771.0,1.0,979.0,0,0.2299102753498523
979,979,-0.4877328056795638,-0.5,1,461.0,643.0,1.0,486.0,1,0.3069326130984516
980,980,0.9658817511067588,1.0,0,459.0,618.0,0.0,153.0,1,0.4753381525622981
981,981,0.2969840939714199,0.3,0,309.0,531.0,0.0,140.0,1,0.4872310372779515
982,982,0.5976259828107933,0.6,0,290.0,793.0,0.0,217.0,1,0.4195178526646054
983,983,0.12437277187252893,0.1,0,333.0,530.0,0.0,1057.0,1,0.3305776054047497
984,984,0.33957414718597145,0.3,0,477.0,680.0,0.0,453.0,1,0.2077603789232888
985,985,-0.1924263917305562,-0.2,1,482.0,541.0,1.0,407.0,1,0.331719699310977
986,986,-0.7445858581319109,-0.7,1,496.0,570.0,1.0,324.0,1,0.2927508991946738
987,987,0.2868479718986052,0.3,0,257.0,564.0,0.0,249.0,1,0.4364377521046441
988,988,0.2834300234342899,0.3,0,356.0,886.0,0.0,758.0,1,0.20056642080547496
989,989,0.012788455256302456,0.0,0,349.0,831.0,0.0,40.0,1,0.4987416785664089
990,990,-0.8607159663683197,-0.9,1,404.0,643.0,1.0,283.0,1,0.3008070862764296
991,991,-0.6194328794055348,-0.6,1,460.0,547.0,1.0,393.0,1,0.23065427412775613
992,992,-0.6816848467765089,-0.7,1,474.0,784.0,1.0,312.0,1,0.30583841217893376
993,993,0.4230068112655836,0.4,0,327.0,891.0,0.0,572.0,1,0.2347031665555856
994,994,-0.7021771186484516,-0.7,1,411.0,549.0,1.0,190.0,1,0.29405692934402095
995,995,-0.00014953419601271278,-0.0,1,297.0,636.0,0.0,1147.0,0,0.3056952712859919
996,996,0.4218014952159044,0.4,0,387.0,802.0,0.0,371.0,1,0.27347340600088754
997,997,-0.4911643560878005,-0.5,1,387.0,686.0,1.0,407.0,1,0.2048329208688041
998,998,0.5108127429430849,0.5,0,367.0,729.0,0.0,274.0,1,0.3885099270679254
999,999,-0.9126525089672799,-0.9,1,421.0,717.0,1.0,312.0,1,0.3526109414867075
1000,1000,-0.42887438630926655,-0.4,1,306.0,744.0,1.0,220.0,1,0.22371069113123274
1001,1001,-0.4683351705219414,-0.5,1,319.0,588.0,1.0,353.0,1,0.38807470664626503
1002,1002,0.5764926188618336,0.6,0,308.0,852.0,0.0,120.0,1,0.34427407754281736
1003,1003,-0.4510453338692977,-0.5,1,291.0,839.0,1.0,200.0,1,0.34385892344965185
1004,1004,0.6930980036498509,0.7,0,295.0,837.0,0.0,418.0,1,0.3073585505781489
1005,1005,-0.352187775883531,-0.4,1,440.0,949.0,1.0,251.0,1,0.3936528006118696
1006,1006,-0.7641739813470603,-0.8,1,331.0,779.0,1.0,220.0,1,0.24318718581952842
1007,1007,-0.7740050769884226,-0.8,1,422.0,925.0,1.0,153.0,1,0.3115086043044736
1008,1008,0.18594611057951305,0.2,0,253.0,780.0,0.0,547.0,1,0.4694173056159381
1009,1009,0.39158078279853803,0.4,0,465.0,610.0,0.0,245.0,1,0.2736253652871899
1010,1010,0.058081579870139954,0.1,0,444.0,926.0,0.0,300.0,1,0.4373972487498935
1011,1011,-0.9597148292047584,-1.0,1,398.0,981.0,1.0,211.0,1,0.22472706114909335
1012,1012,-0.15524792792283248,-0.2,1,279.0,511.0,1.0,1350.0,1,0.41935977294423366
1013,1013,0.43896793038103765,0.4,0,370.0,627.0,0.0,103.0,1,0.4679335771819392
1014,1014,-0.7932052520374264,-0.8,1,373.0,542.0,1.0,565.0,1,0.41917915354924357
1015,1015,-0.028238249950905958,-0.0,1,336.0,646.0,0.0,288.0,0,0.21281445169216495
1016,1016,-0.7033916064690442,-0.7,1,351.0,777.0,1.0,572.0,1,0.23363476596961136
1017,1017,0.8616198084015299,0.9,0,325.0,999.0,0.0,256.0,1,0.4601720543158376
1018,1018,-0.004012801422544676,-0.0,1,333.0,910.0,0.0,767.0,0,0.26538608023052457
1019,1019,-0.374959247588019,-0.4,1,450.0,986.0,1.0,484.0,1,0.22430828948604237
1020,1020,-0.8837373006011913,-0.9,1,391.0,606.0,1.0,283.0,1,0.4113690951512601
1021,1021,0.9317067704854225,0.9,0,323.0,672.0,0.0,285.0,1,0.4729004864378292
1022,1022,0.5770191221602614,0.6,0,282.0,640.0,0.0,198.0,1,0.20223533799688448
1023,1023,0.8782994984619064,0.9,0,363.0,651.0,0.0,-754.0,1,0.37452783248090094
1024,1024,0.7245980347640073,0.7,0,384.0,709.0,0.0,227.0,1,0.22852461957375536
1025,1025,-0.9016432175377196,-0.9,1,269.0,730.0,1.0,171.0,1,0.25050094593605676
1026,1026,0.1586730306759665,0.2,0,429.0,816.0,0.0,925.0,1,0.2335215550750177
1027,1027,-0.6314457853378392,-0.6,1,391.0,976.0,1.0,333.0,1,0.310753667878267
1028,1028,0.8445400551165223,0.8,0,402.0,597.0,0.0,241.0,1,0.3771860004153581
1029,1029,-0.1000169451820605,-0.1,1,477.0,861.0,0.0,572.0,0,0.382648143191737
1030,1030,0.3692719450210986,0.4,0,309.0,680.0,0.0,-119.0,1,0.4712326214649553
1031,1031,-0.7742126737480286,-0.8,1,283.0,713.0,1.0,384.0,1,0.3462952115808665
1032,1032,0.7258437998161638,0.7,0,285.0,893.0,0.0,222.0,1,0.22646670743007613
1033,1033,-0.7621680717991568,-0.8,1,419.0,717.0,1.0,334.0,1,0.25285306032455773
1034,1034,-0.3007145435462535,-0.3,1,301.0,840.0,1.0,239.0,1,0.3794948446842238
1035,1035,-0.6808864664945844,-0.7,1,332.0,935.0,1.0,223.0,1,0.4782442788887884
1036,1036,-0.961939043300376,-1.0,1,460.0,549.0,1.0,201.0,1,0.4621380302402131
1037,1037,-0.3890240355890413,-0.4,1,442.0,662.0,1.0,186.0,1,0.408845618977689
1038,1038,-0.1579336697744731,-0.2,1,428.0,996.0,1.0,366.0,1,0.27514638642110234
1039,1039,0.06990336855844226,0.1,0,411.0,587.0,0.0,372.0,1,0.37338069347337016
1040,1040,0.9530383334733006,1.0,0,444.0,718.0,0.0,208.0,1,0.47646580281236606
1041,1041,-0.2731888174884556,-0.3,1,354.0,953.0,1.0,593.0,1,0.3305740727688459
1042,1042,-0.6994407207368778,-0.7,1,466.0,980.0,1.0,184.0,1,0.35968092684112835
1043,1043,0.6034549850375632,0.6,0,479.0,740.0,0.0,261.0,1,0.40255476216326075
1044,1044,-0.6720987879799976,-0.7,1,435.0,835.0,1.0,330.0,1,0.477416977884793
1045,1045,0.5623127701066777,0.6,0,448.0,768.0,0.0,234.0,1,0.2812059955672122
1046,1046,-0.09511217925852944,-0.1,1,291.0,578.0,1.0,311.0,1,0.403851507183315
1047,1047,0.034340943418442293,0.0,0,434.0,640.0,0.0,886.0,1,0.3641454426165765
1048,1048,-0.7850191134455096,-0.8,1,447.0,803.0,1.0,350.0,1,0.4954386513589618
1049,1049,0.8675043635478541,0.9,0,371.0,581.0,0.0,278.0,1,0.40307003293425614
1050,1050,0.03472077265823503,0.0,0,355.0,894.0,0.0,31.0,1,0.4295635919649816
1051,1051,0.10757541954403416,0.1,0,419.0,500.0,0.0,561.0,1,0.34998220984989803
1052,1052,-0.12508748431078676,-0.1,1,356.0,529.0,1.0,345.0,1,0.2595184818925193
1053,1053,-0.4654777496251381,-0.5,1,250.0,647.0,1.0,383.0,1,0.29951423585205966
1054,1054,-0.6993340881664531,-0.7,1,428.0,883.0,1.0,169.0,1,0.31804459597806845
1055,1055,-0.8260942814888834,-0.8,1,265.0,993.0,1.0,202.0,1,0.4722535391183325
1056,1056,-0.7182359606274578,-0.7,1,319.0,527.0,1.0,264.0,1,0.22180694679828392
1057,1057,0.9978666661462043,1.0,0,393.0,683.0,0.0,194.0,1,0.4154949191668138
1058,1058,-0.8588642375003137,-0.9,1,260.0,615.0,1.0,265.0,1,0.24742806434124326
1059,1059,-0.29834410705307457,-0.3,1,434.0,882.0,1.0,554.0,1,0.4812021726666602
1060,1060,-0.4551502962816072,-0.5,1,336.0,649.0,1.0,1045.0,1,0.3136603065128659
1061,1061,-0.9425272243514351,-0.9,1,365.0,622.0,1.0,273.0,1,0.4835646009103828
1062,1062,0.9513584009389031,1.0,0,418.0,764.0,0.0,138.0,1,0.4492861329873984
1063,1063,0.751409421136505,0.8,0,396.0,674.0,0.0,270.0,1,0.41352192152091005
1064,1064,0.8229436038121818,0.8,0,353.0,591.0,0.0,-454.0,1,0.45684680253074944
1065,1065,-0.002691675182975972,-0.0,1,422.0,742.0,0.0,406.0,0,0.47475047403347576
1066,1066,-0.3027708217622307,-0.3,1,499.0,996.0,1.0,345.0,1,0.43273327140269535
1067,1067,-0.4744259860515614,-0.5,1,454.0,544.0,1.0,532.0,1,0.39577858998772175
1068,1068,0.8255642751217418,0.8,0,412.0,564.0,0.0,134.0,1,0.30276784396060835
1069,1069,-0.6065355090114255,-0.6,1,404.0,756.0,1.0,270.0,1,0.20355583202652278
1070,1070,-0.1263186399363283,-0.1,1,300.0,884.0,1.0,246.0,1,0.2134161388433225
1071,1071,-0.7511836443243869,-0.8,1,274.0,551.0,0.0,-125.0,0,0.45680144090716657
1072,1072,-0.9429338773369611,-0.9,1,356.0,510.0,1.0,304.0,1,0.26591612789556124
1073,1073,-0.7952316610877403,-0.8,1,339.0,544.0,0.0,-53.0,0,0.4555096271926417
1074,1074,0.948368500891799,0.9,0,347.0,600.0,0.0,-367.0,1,0.48562029934075784
1075,1075,0.48619019895819426,0.5,0,485.0,660.0,0.0,135.0,1,0.4748769389047126
1076,1076,-0.9159821490896511,-0.9,1,484.0,739.0,1.0,247.0,1,0.346868817965557
1077,1077,-0.5823784634763993,-0.6,1,444.0,503.0,1.0,213.0,1,0.2500614309073499
1078,1078,-0.01086215753781472,-0.0,1,288.0,779.0,0.0,553.0,0,0.34727522647137893
1079,1079,0.9513529782073018,1.0,0,407.0,608.0,0.0,265.0,1,0.24915137412584407
1080,1080,0.6087666678258172,0.6,0,348.0,950.0,0.0,632.0,1,0.2547713241252237
1081,1081,0.5846676055451465,0.6,0,297.0,636.0,0.0,147.0,1,0.399768419872636
1082,1082,0.4734394953000458,0.5,0,419.0,870.0,0.0,91.0,1,0.354131671338773
1083,1083,-0.5355229929828829,-0.5,1,377.0,657.0,1.0,206.0,1,0.26808411654216924
1084,1084,-0.3179414457738261,-0.3,1,455.0,836.0,1.0,419.0,1,0.31835276929999157
1085,1085,-0.9266291131128881,-0.9,1,278.0,878.0,1.0,204.0,1,0.42036360225218816
1086,1086,0.4286610340908814,0.4,0,257.0,630.0,0.0,223.0,1,0.3647828909088069
1087,1087,0.6563603283504236,0.7,0,450.0,790.0,0.0,140.0,1,0.3466502082343813
1088,1088,0.8411686231275275,0.8,0,288.0,934.0,0.0,78.0,1,0.4703557933613975
1089,1089,0.8995907979010496,0.9,0,460.0,945.0,0.0,395.0,1,0.21998810693205753
1090,1090,0.4819407823795565,0.5,0,415.0,893.0,0.0,262.0,1,0.3443474947808488
1091,1091,-0.7975518168015199,-0.8,1,416.0,932.0,1.0,332.0,1,0.20124677754661596
1092,1092,-0.8052648530035635,-0.8,1,461.0,737.0,0.0,-528.0,0,0.3515655020299916
1093,1093,0.2216695535832669,0.2,0,444.0,560.0,0.0,196.0,1,0.48957095197269496
1094,1094,-0.3031953439157229,-0.3,1,434.0,915.0,1.0,851.0,1,0.3706982878548264
1095,1095,0.38717662330598124,0.4,0,365.0,871.0,0.0,264.0,1,0.4991570790686514
1096,1096,-0.9584745071491694,-1.0,1,483.0,943.0,1.0,274.0,1,0.27933418044900904
1097,1097,0.47607105061286226,0.5,0,445.0,651.0,0.0,264.0,1,0.34579687529779535
1098,1098,-0.5049822634229106,-0.5,1,313.0,712.0,1.0,315.0,1,0.24281994041784172
1099,1099,-0.08836027375425415,-0.1,1,408.0,657.0,1.0,695.0,1,0.3415911182343284
1100,1100,-0.5835966267075452,-0.6,1,488.0,753.0,1.0,349.0,1,0.23372541830541677
1101,1101,0.6351199107073995,0.6,0,435.0,886.0,0.0,79.0,1,0.47310652770410855
1102,1102,-0.01012165043257407,-0.0,1,367.0,947.0,1.0,1086.0,1,0.4091452646961127
1103,1103,0.8006650838004488,0.8,0,487.0,656.0,0.0,137.0,1,0.27676513030668676
1104,1104,-0.7484956814912029,-0.7,1,426.0,972.0,1.0,242.0,1,0.3505612824541409
1105,1105,-0.6133240729950631,-0.6,1,438.0,750.0,1.0,402.0,1,0.3891203079103972
1106,1106,0.8483958516882308,0.8,0,483.0,513.0,0.0,194.0,1,0.498373823994788
1107,1107,0.3560929761676863,0.4,0,448.0,701.0,0.0,331.0,1,0.21186812068743027
1108,1108,-0.9653509765335744,-1.0,1,499.0,586.0,1.0,235.0,1,0.23689608711383892
1109,1109,-0.16583073146974647,-0.2,1,379.0,959.0,1.0,812.0,1,0.34373775416190355
1110,1110,-0.8574884519024817,-0.9,1,376.0,633.0,1.0,261.0,1,0.3308893527609781
1111,1111,-0.7895522881716139,-0.8,1,357.0,567.0,1.0,286.0,1,0.3522101934719147
1112,1112,0.8718136151222473,0.9,0,423.0,594.0,0.0,343.0,1,0.4276259388878478
1113,1113,-0.21237962377209008,-0.2,1,443.0,701.0,1.0,516.0,1,0.4890506728931965
1114,1114,-0.2838220084498977,-0.3,1,355.0,668.0,1.0,1197.0,1,0.2864145685299575
1115,1115,-0.16447715324977175,-0.2,1,463.0,938.0,1.0,839.0,1,0.44582308622786904
1116,1116,0.9198652798599791,0.9,0,368.0,685.0,0.0,167.0,1,0.3840873933518434
1117,1117,0.29806114452819554,0.3,0,315.0,782.0,0.0,433.0,1,0.4065193379477561
1118,1118,-0.15788395898408147,-0.2,1,257.0,640.0,1.0,973.0,1,0.37815667184841195
1119,1119,0.5401616209392961,0.5,0,256.0,926.0,0.0,308.0,1,0.250919368535999
1120,1120,0.7728369236527164,0.8,0,425.0,871.0,0.0,224.0,1,0.3753785445401324
1121,1121,0.7633113221870014,0.8,0,313.0,920.0,0.0,297.0,1,0.4730378979544259
1122,1122,0.6221109645402652,0.6,0,411.0,961.0,0.0,338.0,1,0.39288856632847113
1123,1123,-0.4757074979504703,-0.5,1,350.0,840.0,1.0,420.0,1,0.4082734572356318
1124,1124,-0.5406948915473604,-0.5,1,409.0,906.0,1.0,295.0,1,0.2505975586621386
1125,1125,-0.21488279778301478,-0.2,1,287.0,699.0,1.0,414.0,1,0.4122014294896235
1126,1126,-0.20358644688112126,-0.2,1,354.0,611.0,1.0,965.0,1,0.41283098170324517
1127,1127,-0.7410580548784564,-0.7,1,463.0,557.0,1.0,270.0,1,0.4170828671454193
1128,1128,-0.3820016721664168,-0.4,1,451.0,785.0,1.0,194.0,1,0.217410044123524
1129,1129,0.13797449680149754,0.1,0,482.0,974.0,0.0,474.0,1,0.4653530637975767
1130,1130,0.7687699592338819,0.8,0,370.0,714.0,0.0,366.0,1,0.29459751133090295
1131,1131,-0.6785472595735775,-0.7,1,377.0,867.0,1.0,456.0,1,0.23330601121435496
1132,1132,-0.014338240547552283,-0.0,1,452.0,771.0,1.0,397.0,1,0.3917548917625675
1133,1133,-0.2296948487739725,-0.2,1,267.0,792.0,1.0,741.0,1,0.2872579100033978
1134,1134,0.11433759739207927,0.1,0,273.0,648.0,0.0,589.0,1,0.36680607626895256
1135,1135,0.6058495110980802,0.6,0,336.0,931.0,0.0,513.0,1,0.2227121247092666
1136,1136,-0.22021665132022594,-0.2,1,368.0,578.0,1.0,464.0,1,0.2781830713444292
1137,1137,-0.32179804718210425,-0.3,1,427.0,600.0,1.0,323.0,1,0.4120587273856475
1138,1138,-0.3296015880665548,-0.3,1,294.0,962.0,1.0,824.0,1,0.28263992465475724
1139,1139,0.48295736366471553,0.5,0,330.0,591.0,0.0,299.0,1,0.38463545955772305
1140,1140,0.7082485475497311,0.7,0,360.0,960.0,0.0,120.0,1,0.326338647542605
1141,1141,0.3847742105255141,0.4,0,314.0,898.0,0.0,258.0,1,0.38285438415134015
1142,1142,0.7604172188109595,0.8,0,314.0,608.0,0.0,218.0,1,0.29455956139763445
1143,1143,0.03422417603185668,0.0,0,298.0,513.0,0.0,299.0,1,0.2986105967743872
1144,1144,0.10652728039799753,0.1,0,326.0,880.0,0.0,604.0,1,0.29060229414728944
1145,1145,-0.23111983155929217,-0.2,1,283.0,671.0,1.0,1066.0,1,0.3957913572339612
1146,1146,0.4657667881428045,0.5,0,453.0,963.0,0.0,394.0,1,0.37362170892854685
1147,1147,0.881004310350191,0.9,0,477.0,982.0,0.0,181.0,1,0.24398824961442422
1148,1148,-0.41350539475548986,-0.4,1,377.0,559.0,1.0,214.0,1,0.2612743907267662
1149,1149,-0.6725520509764864,-0.7,1,382.0,509.0,1.0,309.0,1,0.36926248058143574
1150,1150,0.8076569780061036,0.8,0,300.0,919.0,0.0,341.0,1,0.3745082274157089
1151,1151,0.5927213042138333,0.6,0,260.0,566.0,0.0,194.0,1,0.34604950813658825
1152,1152,0.6339889745003391,0.6,0,464.0,756.0,0.0,360.0,1,0.2123068608314172
1153,1153,0.7264109394438265,0.7,0,290.0,928.0,0.0,112.0,1,0.2087109195913091
1154,1154,0.22716533824743612,0.2,0,358.0,996.0,0.0,256.0,1,0.4592641688199314
1155,1155,-0.45277565548665,-0.5,1,430.0,553.0,1.0,277.0,1,0.4867012330554
1156,1156,0.7153687672013433,0.7,0,342.0,515.0,0.0,203.0,1,0.37224680098373364
1157,1157,0.856045511035596,0.9,0,451.0,711.0,0.0,128.0,1,0.4927225230877021
1158,1158,0.9568705659989241,1.0,0,352.0,530.0,0.0,528.0,1,0.26364301604105667
1159,1159,-0.962179682254974,-1.0,1,311.0,954.0,1.0,175.0,1,0.2204887310260133
1160,1160,-0.29803653716452794,-0.3,1,273.0,851.0,1.0,516.0,1,0.23853160417411895
1161,1161,0.7858138528497123,0.8,0,498.0,834.0,0.0,318.0,1,0.3459210608238953
1162,1162,0.7396707686663142,0.7,0,455.0,912.0,0.0,283.0,1,0.36447278115245973
1163,1163,0.5868872680096131,0.6,0,338.0,789.0,0.0,633.0,1,0.3877673146083872
1164,1164,0.10785674608448748,0.1,0,488.0,537.0,0.0,175.0,1,0.21978216372534712
1165,1165,0.5099329106642365,0.5,0,430.0,818.0,0.0,392.0,1,0.20149473207519053
1166,1166,0.27343910828977913,0.3,0,258.0,503.0,0.0,199.0,1,0.44284496751815516
1167,1167,-0.8682636696590431,-0.9,1,482.0,806.0,1.0,232.0,1,0.23607428453310153
1168,1168,0.06883406261769909,0.1,0,298.0,955.0,0.0,1297.0,1,0.2202455108659653
1169,1169,0.06241787709389435,0.1,0,441.0,518.0,0.0,231.0,1,0.46784705574869506
1170,1170,-0.6954443807383321,-0.7,1,303.0,590.0,1.0,267.0,1,0.45279586336285527
1171,1171,0.8875298868258905,0.9,0,336.0,877.0,0.0,267.0,1,0.3701548281451798
1172,1172,0.4470027564413386,0.4,0,278.0,870.0,0.0,422.0,1,0.20369921018001533
1173,1173,-0.9708838230755046,-1.0,1,308.0,683.0,1.0,259.0,1,0.4176706244464093
1174,1174,0.7060454247588956,0.7,0,442.0,600.0,0.0,298.0,1,0.330342120481524
1175,1175,0.9624200700777508,1.0,0,407.0,926.0,0.0,317.0,1,0.3259037922324428
1176,1176,-0.48587905842049905,-0.5,1,383.0,516.0,1.0,271.0,1,0.31164641505748725
1177,1177,-0.08477839055999548,-0.1,1,268.0,832.0,0.0,170.0,0,0.4465379697106443
1178,1178,0.6839395080630424,0.7,0,251.0,940.0,0.0,239.0,1,0.4267315572908672
1179,1179,0.5726698997306776,0.6,0,256.0,742.0,0.0,182.0,1,0.4264116811390692
1180,1180,-0.7620628790087398,-0.8,1,391.0,956.0,1.0,253.0,1,0.4398002447983076
1181,1181,-0.17261423306592283,-0.2,1,269.0,922.0,1.0,399.0,1,0.26172946086379006
1182,1182,-0.682718435618572,-0.7,1,311.0,801.0,1.0,758.0,1,0.28787089258068
1183,1183,0.14730894909101555,0.1,0,386.0,875.0,0.0,449.0,1,0.20467618122072684
1184,1184,0.9663546711814517,1.0,0,360.0,672.0,0.0,68.0,1,0.49465316347725
1185,1185,0.9845193643789296,1.0,0,444.0,717.0,0.0,179.0,1,0.21741855766777657
1186,1186,-0.23575933766228707,-0.2,1,456.0,845.0,0.0,259.0,0,0.24778249742420075
1187,1187,-0.728481003220536,-0.7,1,468.0,517.0,1.0,205.0,1,0.41027958264974335
1188,1188,-0.3768078379613051,-0.4,1,386.0,841.0,1.0,303.0,1,0.34400082797596515
1189,1189,0.7690611294166292,0.8,0,420.0,581.0,0.0,109.0,1,0.3760140375640183
1190,1190,0.47765745533316606,0.5,0,325.0,834.0,0.0,121.0,1,0.4908381470449315
1191,1191,-0.07083499591731979,-0.1,1,471.0,920.0,0.0,369.0,0,0.3421617526965137
1192,1192,-0.04408255277429918,-0.0,1,285.0,818.0,0.0,647.0,0,0.22998064652436712
1193,1193,-0.9273209590381788,-0.9,1,381.0,550.0,1.0,259.0,1,0.3101023335595489
1194,1194,0.9804365826308719,1.0,0,434.0,615.0,0.0,481.0,1,0.231496676186866
1195,1195,0.9382935284109837,0.9,0,264.0,908.0,0.0,-412.0,1,0.44440216901025686
1196,1196,0.42177558394943016,0.4,0,263.0,977.0,0.0,310.0,1,0.42205963424725945
1197,1197,-0.8354236576070535,-0.8,1,297.0,992.0,1.0,251.0,1,0.25143458601992874
1198,1198,-0.05290126383129068,-0.1,1,350.0,743.0,0.0,517.0,0,0.2965225891452262
1199,1199,-0.9677363062880815,-1.0,1,452.0,796.0,1.0,152.0,1,0.4005952392949981
1200,1200,0.6324619857574805,0.6,0,255.0,612.0,0.0,493.0,1,0.3876040382766366
1201,1201,0.5031675788264396,0.5,0,278.0,906.0,0.0,256.0,1,0.2583831683657605
1202,1202,-0.22522011406305675,-0.2,1,265.0,564.0,1.0,1251.0,1,0.37181890962706343
1203,1203,0.6374415541656453,0.6,0,405.0,847.0,0.0,318.0,1,0.2202722129340001
1204,1204,0.9105323074371066,0.9,0,335.0,540.0,0.0,165.0,1,0.4975155757239567
1205,1205,0.17490477313612263,0.2,0,362.0,775.0,0.0,413.0,1,0.4671069092392051
1206,1206,0.931352909542507,0.9,0,330.0,663.0,0.0,177.0,1,0.2649497679139494
1207,1207,-0.8655075640428986,-0.9,1,489.0,968.0,1.0,203.0,1,0.42396802419605917
1208,1208,-0.39195531967446007,-0.4,1,487.0,713.0,1.0,730.0,1,0.3727690452645316
1209,1209,-0.19830628777276416,-0.2,1,495.0,575.0,1.0,680.0,1,0.4047915389611427
1210,1210,-0.80507576220306,-0.8,1,336.0,987.0,1.0,217.0,1,0.36197498163118635
1211,1211,0.8875878620478124,0.9,0,324.0,954.0,0.0,202.0,1,0.39661696888552067
1212,1212,0.0499037605480932,0.0,0,308.0,646.0,1.0,606.0,0,0.3738183546839111
1213,1213,-0.4507427587487134,-0.5,1,339.0,824.0,1.0,447.0,1,0.4159879207461589
1214,1214,-0.42185476987058035,-0.4,1,424.0,519.0,1.0,287.0,1,0.45162710061032346
1215,1215,-0.6207881840693947,-0.6,1,286.0,756.0,1.0,238.0,1,0.4082949265250515
1216,1216,-0.5839749584074769,-0.6,1,315.0,736.0,1.0,269.0,1,0.3998225936430617
1217,1217,-0.7210970374316505,-0.7,1,313.0,640.0,1.0,367.0,1,0.36734410684528823
1218,1218,0.42132441476849225,0.4,0,261.0,954.0,0.0,185.0,1,0.3703150343765097
1219,1219,0.848118582937752,0.8,0,421.0,948.0,0.0,341.0,1,0.25617159817298785
1220,1220,0.02831632063432088,0.0,0,304.0,515.0,0.0,1631.0,1,0.4101928443983226
1221,1221,0.27490630558482976,0.3,0,464.0,685.0,0.0,291.0,1,0.26057793095242787
1222,1222,0.10610273092012434,0.1,0,313.0,549.0,0.0,488.0,1,0.4167115325705097
1223,1223,0.43149774444411815,0.4,0,496.0,698.0,0.0,266.0,1,0.4463448386229154
1224,1224,-0.6569988644339011,-0.7,1,428.0,869.0,1.0,233.0,1,0.4691707151319789
1225,1225,-0.0022910602602916885,-0.0,1,398.0,552.0,0.0,300.0,0,0.2344098521032787
1226,1226,-0.9612231993116469,-1.0,1,301.0,565.0,1.0,274.0,1,0.2580056060303024
1227,1227,-0.3811067615666568,-0.4,1,304.0,955.0,1.0,401.0,1,0.23832347861629744
1228,1228,0.049106902940593944,0.0,0,340.0,672.0,0.0,868.0,1,0.2450136011379655
1229,1229,-0.060753622686583464,-0.1,1,481.0,725.0,0.0,594.0,0,0.45669467887618487
1230,1230,0.679361910737712,0.7,0,288.0,637.0,0.0,295.0,1,0.4526435319059687
1231,1231,-0.4390751004300064,-0.4,1,371.0,677.0,1.0,692.0,1,0.4252622148966042
1232,1232,0.5610125102247576,0.6,0,463.0,920.0,0.0,217.0,1,0.36870329476631525
1233,1233,0.04460974016498964,0.0,0,273.0,712.0,0.0,445.0,1,0.24265048273771542
1234,1234,0.39520710851452034,0.4,0,311.0,773.0,0.0,346.0,1,0.2890880215158746
1235,1235,0.8277062832059565,0.8,0,383.0,536.0,0.0,71.0,1,0.4802896491530488
1236,1236,0.25340940461737227,0.3,0,274.0,647.0,1.0,539.0,0,0.3602980567004529
1237,1237,0.5614194299621023,0.6,0,250.0,940.0,0.0,340.0,1,0.22628923206350843
1238,1238,-0.6166715709341897,-0.6,1,364.0,900.0,1.0,296.0,1,0.4505320301515877
1239,1239,0.44903225352128406,0.4,0,316.0,637.0,0.0,137.0,1,0.4789808011250227
1240,1240,0.9406732900355679,0.9,0,274.0,679.0,0.0,127.0,1,0.3314838039733792
1241,1241,-0.2621289986455331,-0.3,1,455.0,625.0,1.0,240.0,1,0.3985722057597618
1242,1242,-0.5119268464305597,-0.5,1,377.0,937.0,1.0,736.0,1,0.44794697968374037
1243,1243,0.21401682329691263,0.2,0,338.0,825.0,0.0,407.0,1,0.21122804823978988
1244,1244,0.9117706308378768,0.9,0,381.0,804.0,0.0,365.0,1,0.2843088728999771
1245,1245,0.2400502355457239,0.2,0,444.0,989.0,0.0,407.0,1,0.37325084185711177
1246,1246,0.09713072633715769,0.1,0,286.0,513.0,0.0,1571.0,1,0.4727396018914066
1247,1247,0.5359502709271178,0.5,0,378.0,626.0,0.0,216.0,1,0.3445663827108494
1248,1248,-0.006616219627652242,-0.0,1,455.0,629.0,0.0,946.0,0,0.26585481753725637
1249,1249,0.27530847680087733,0.3,0,278.0,731.0,0.0,441.0,1,0.36917735276576935
1250,1250,-0.3923792923575684,-0.4,1,343.0,681.0,1.0,356.0,1,0.29212957690605834
1251,1251,0.49438068577007566,0.5,0,429.0,605.0,0.0,336.0,1,0.22553233030118444
1252,1252,-0.8315351362939878,-0.8,1,312.0,514.0,1.0,204.0,1,0.4698713855278535
1253,1253,0.057021632614092654,0.1,0,296.0,816.0,0.0,698.0,1,0.25010737136441874
1254,1254,0.9262066689496371,0.9,0,497.0,803.0,0.0,210.0,1,0.4604679733405238
1255,1255,-0.7721137916506513,-0.8,1,341.0,675.0,1.0,184.0,1,0.25286988603381627
1256,1256,0.19871351129928194,0.2,0,315.0,670.0,0.0,555.0,1,0.3921922472036028
1257,1257,-0.9325290860222704,-0.9,1,412.0,759.0,1.0,179.0,1,0.392692112073957
1258,1258,0.4973565800233639,0.5,0,340.0,706.0,0.0,314.0,1,0.3331608905308552
1259,1259,-0.3180778904549306,-0.3,1,322.0,945.0,0.0,383.0,0,0.3323153289864753
1260,1260,-0.3657214692039117,-0.4,1,485.0,919.0,1.0,936.0,1,0.22790420398899286
1261,1261,0.8707482497052503,0.9,0,412.0,677.0,0.0,21.0,1,0.40760172709429887
1262,1262,-0.3999112617216998,-0.4,1,266.0,991.0,1.0,323.0,1,0.38233848283451977
1263,1263,0.7165571605404129,0.7,0,308.0,796.0,0.0,266.0,1,0.24539533863379467
1264,1264,0.26920191473582533,0.3,0,459.0,749.0,0.0,422.0,1,0.20325150495899524
1265,1265,-0.7351651277976905,-0.7,1,260.0,984.0,1.0,196.0,1,0.4220243932186717
1266,1266,-0.5035970621668151,-0.5,1,491.0,627.0,1.0,582.0,1,0.30946317162636083
1267,1267,0.622234461119741,0.6,0,432.0,779.0,0.0,199.0,1,0.47751116079425304
1268,1268,-0.35649106618233195,-0.4,1,404.0,869.0,1.0,297.0,1,0.28558659013608445
1269,1269,0.0666320771902631,0.1,0,340.0,673.0,0.0,437.0,1,0.3134760613654701
1270,1270,0.35811747385462,0.4,0,410.0,850.0,0.0,560.0,1,0.4041283543580335
1271,1271,0.535029474014403,0.5,0,449.0,601.0,0.0,130.0,1,0.48250921938719465
1272,1272,-0.8387731600694122,-0.8,1,470.0,636.0,1.0,304.0,1,0.4667201409624406
1273,1273,0.19320090136744827,0.2,0,394.0,881.0,0.0,365.0,1,0.41197594273713317
1274,1274,-0.7775442655335407,-0.8,1,479.0,765.0,1.0,206.0,1,0.47175625320029774
1275,1275,-0.6870475346218845,-0.7,1,496.0,539.0,1.0,225.0,1,0.34699811764586874
1276,1276,-0.23156969873683098,-0.2,1,277.0,655.0,0.0,-772.0,0,0.47692646040840025
1277,1277,0.5726071494895955,0.6,0,384.0,648.0,0.0,58.0,1,0.4829118073204779
1278,1278,-0.9768835871460109,-1.0,1,452.0,637.0,1.0,271.0,1,0.3913021373003107
1279,1279,-0.9244894320754034,-0.9,1,338.0,545.0,1.0,297.0,1,0.4407131790466053
