,trial,coherence,coherence_bin,correct_side,target_onset,checker_onset,decision,decision_time,correct_decision,init_y_left,init_y_right
0,0,0.7580392251725618,0.8,0,420.0,842.0,0.0,288.0,1,0.02010145468749369,0.02010145468749369
1,1,-0.2754220193868624,-0.3,1,402.0,918.0,1.0,380.0,1,0.3797587632056884,0.3797587632056884
2,2,-0.25198240980039155,-0.3,1,264.0,524.0,1.0,722.0,1,0.24424849857609887,0.24424849857609887
3,3,0.26903475157265033,0.3,0,463.0,810.0,0.0,507.0,1,0.3585727192684826,0.3585727192684826
4,4,-0.021862889418613474,-0.0,1,300.0,503.0,0.0,957.0,0,0.08482512308127332,0.08482512308127332
5,5,-0.727717117134439,-0.7,1,451.0,664.0,1.0,415.0,1,0.408229193373802,0.408229193373802
6,6,-0.7781274889105574,-0.8,1,279.0,994.0,1.0,197.0,1,0.11134804829597544,0.11134804829597544
7,7,-0.22560675124657226,-0.2,1,470.0,994.0,1.0,956.0,1,0.3527257282177128,0.3527257282177128
8,8,-0.910988372039063,-0.9,1,265.0,519.0,1.0,336.0,1,0.2499684458087859,0.2499684458087859
9,9,0.7472108659259966,0.7,0,478.0,923.0,0.0,319.0,1,0.04458333524828095,0.04458333524828095
10,10,0.9975362003327144,1.0,0,287.0,653.0,0.0,260.0,1,0.3576552995601197,0.3576552995601197
11,11,-0.6270282818062738,-0.6,1,461.0,907.0,1.0,252.0,1,0.0656382386508626,0.0656382386508626
12,12,-0.9250545887169621,-0.9,1,310.0,982.0,1.0,248.0,1,0.30331685753556054,0.30331685753556054
13,13,0.009047588570559206,0.0,0,472.0,832.0,1.0,616.0,0,0.43354348586851493,0.43354348586851493
14,14,-0.6182420087256362,-0.6,1,396.0,970.0,1.0,254.0,1,0.07381532191505064,0.07381532191505064
15,15,0.16644807877561996,0.2,0,293.0,964.0,0.0,463.0,1,0.05236058465275034,0.05236058465275034
16,16,0.5452140536439525,0.5,0,264.0,800.0,0.0,316.0,1,0.4922006850571339,0.4922006850571339
17,17,-0.478466026817401,-0.5,1,260.0,989.0,1.0,301.0,1,0.12764015100480958,0.12764015100480958
18,18,-0.6426205695776632,-0.6,1,254.0,628.0,1.0,358.0,1,0.117320799669003,0.117320799669003
19,19,-0.6055002703155627,-0.6,1,283.0,983.0,1.0,274.0,1,0.3489502263104349,0.3489502263104349
20,20,0.5042899668278176,0.5,0,382.0,716.0,0.0,332.0,1,0.2677998355019541,0.2677998355019541
21,21,-0.49862454934155154,-0.5,1,421.0,895.0,1.0,174.0,1,0.17719200024945964,0.17719200024945964
22,22,0.8517891837514002,0.9,0,486.0,824.0,0.0,240.0,1,0.41641784652737035,0.41641784652737035
23,23,-0.7524318833929653,-0.8,1,273.0,724.0,1.0,333.0,1,0.30023642621534374,0.30023642621534374
24,24,0.5167204889621801,0.5,0,442.0,965.0,0.0,253.0,1,0.24857150058751248,0.24857150058751248
25,25,0.7025934059946493,0.7,0,473.0,643.0,0.0,234.0,1,0.315943316537831,0.315943316537831
26,26,0.45616373218320283,0.5,0,417.0,617.0,0.0,946.0,1,0.3803379924595754,0.3803379924595754
27,27,-0.5096918968322524,-0.5,1,392.0,686.0,1.0,442.0,1,0.4080882980202905,0.4080882980202905
28,28,0.6565698244852132,0.7,0,379.0,760.0,0.0,121.0,1,0.09546026820331144,0.09546026820331144
29,29,-0.8356266768341758,-0.8,1,363.0,719.0,1.0,378.0,1,0.3022097441805381,0.3022097441805381
30,30,0.14739572715578353,0.1,0,369.0,651.0,0.0,290.0,1,0.08051798125842824,0.08051798125842824
31,31,-0.01328433979601562,-0.0,1,265.0,953.0,1.0,642.0,1,0.41905332776294935,0.41905332776294935
32,32,0.9710342658397342,1.0,0,253.0,905.0,0.0,202.0,1,0.2806115711248649,0.2806115711248649
33,33,0.3828801038166225,0.4,0,255.0,549.0,0.0,596.0,1,0.23714785639461466,0.23714785639461466
34,34,-0.7995535004708145,-0.8,1,255.0,887.0,1.0,298.0,1,0.4551522410528646,0.4551522410528646
35,35,-0.6532831998489288,-0.7,1,476.0,746.0,1.0,408.0,1,0.0030509393268994822,0.0030509393268994822
36,36,0.1603478359744599,0.2,0,499.0,785.0,0.0,486.0,1,0.371380214265416,0.371380214265416
37,37,0.19183703585880352,0.2,0,294.0,649.0,0.0,1257.0,1,0.15785280345315128,0.15785280345315128
38,38,0.9971550560249802,1.0,0,291.0,847.0,0.0,252.0,1,0.21574264183094688,0.21574264183094688
39,39,-0.7275601561665541,-0.7,1,472.0,899.0,1.0,369.0,1,0.25054999058647476,0.25054999058647476
40,40,0.9995912509037279,1.0,0,469.0,598.0,0.0,253.0,1,0.003927739730633262,0.003927739730633262
41,41,-0.9441115595903502,-0.9,1,287.0,991.0,1.0,202.0,1,0.4274371520338827,0.4274371520338827
42,42,0.41231265497632985,0.4,0,343.0,661.0,0.0,326.0,1,0.09568472460419009,0.09568472460419009
43,43,0.11719581967275561,0.1,0,317.0,947.0,0.0,886.0,1,0.05211171364957767,0.05211171364957767
44,44,-0.054715838750724055,-0.1,1,319.0,939.0,1.0,1022.0,1,0.0007582861538730779,0.0007582861538730779
45,45,0.4259093050681424,0.4,0,262.0,738.0,0.0,990.0,1,0.06360054195831966,0.06360054195831966
46,46,0.5812226699097285,0.6,0,272.0,697.0,0.0,491.0,1,0.26822543730509574,0.26822543730509574
47,47,-0.8124682583700769,-0.8,1,403.0,623.0,1.0,244.0,1,0.24257887499016312,0.24257887499016312
48,48,-0.9478583355733166,-0.9,1,268.0,732.0,1.0,190.0,1,0.4481004738178844,0.4481004738178844
49,49,-0.6802137965021795,-0.7,1,295.0,631.0,1.0,404.0,1,0.3725271575487617,0.3725271575487617
50,50,0.5996195511531399,0.6,0,262.0,917.0,0.0,551.0,1,0.2239956891536306,0.2239956891536306
51,51,0.6960248746206172,0.7,0,465.0,960.0,0.0,405.0,1,0.4348650185284234,0.4348650185284234
52,52,0.9192317776064303,0.9,0,386.0,560.0,0.0,224.0,1,0.008356100215135553,0.008356100215135553
53,53,0.8001262176608608,0.8,0,265.0,715.0,0.0,390.0,1,0.43714984786481803,0.43714984786481803
54,54,-0.2873387849430997,-0.3,1,366.0,900.0,0.0,404.0,0,0.05672485988734277,0.05672485988734277
55,55,-0.7215877625093139,-0.7,1,314.0,598.0,1.0,288.0,1,0.3222923209434545,0.3222923209434545
56,56,-0.45854916283001823,-0.5,1,310.0,549.0,1.0,511.0,1,0.30951892146858145,0.30951892146858145
57,57,0.45464548101251,0.5,0,446.0,572.0,0.0,342.0,1,0.12605876023855267,0.12605876023855267
58,58,0.6789942802701037,0.7,0,304.0,750.0,0.0,146.0,1,0.20071985289743244,0.20071985289743244
59,59,0.5411492316479318,0.5,0,404.0,888.0,0.0,518.0,1,0.3421845674361251,0.3421845674361251
60,60,0.7151738659388014,0.7,0,337.0,619.0,0.0,364.0,1,0.32681807443465205,0.32681807443465205
61,61,-0.027751705726926756,-0.0,1,266.0,719.0,1.0,495.0,1,0.2516573408728362,0.2516573408728362
62,62,0.8896687115500181,0.9,0,434.0,896.0,0.0,150.0,1,0.029704927355683697,0.029704927355683697
63,63,-0.5626306964372896,-0.6,1,412.0,754.0,1.0,214.0,1,0.2426188110977951,0.2426188110977951
64,64,0.9516132804244195,1.0,0,319.0,655.0,0.0,296.0,1,0.15134132544602635,0.15134132544602635
65,65,-0.7597791030093448,-0.8,1,257.0,874.0,1.0,359.0,1,0.36297864592767465,0.36297864592767465
66,66,0.7154703409692653,0.7,0,363.0,966.0,0.0,251.0,1,0.2681955653690291,0.2681955653690291
67,67,0.6337391886999573,0.6,0,350.0,538.0,0.0,212.0,1,0.4423204735065915,0.4423204735065915
68,68,0.9232074377368864,0.9,0,287.0,737.0,0.0,216.0,1,0.07796944906951814,0.07796944906951814
69,69,-0.9487509798075806,-0.9,1,334.0,958.0,1.0,428.0,1,0.054464431869142016,0.054464431869142016
70,70,-0.6588339374061012,-0.7,1,274.0,770.0,1.0,396.0,1,0.3188445067059924,0.3188445067059924
71,71,-0.3686073035709334,-0.4,1,388.0,659.0,1.0,443.0,1,0.42315591303153893,0.42315591303153893
72,72,0.9811939803736658,1.0,0,335.0,578.0,0.0,267.0,1,0.08936590028998459,0.08936590028998459
73,73,-0.9266827407300289,-0.9,1,369.0,896.0,1.0,255.0,1,0.4564741204678769,0.4564741204678769
74,74,0.1553457320734133,0.2,0,356.0,771.0,0.0,693.0,1,0.16412284963656387,0.16412284963656387
75,75,-0.2730306620475085,-0.3,1,275.0,966.0,1.0,729.0,1,0.09072846097560255,0.09072846097560255
76,76,-0.014700550958873349,-0.0,1,341.0,680.0,1.0,569.0,1,0.43459576329172944,0.43459576329172944
77,77,-0.045566863565488225,-0.0,1,474.0,738.0,1.0,298.0,1,0.3685788628825419,0.3685788628825419
78,78,0.32730033119856916,0.3,0,383.0,845.0,0.0,412.0,1,0.3514089532798312,0.3514089532798312
79,79,0.19410449700820975,0.2,0,430.0,632.0,0.0,538.0,1,0.17508239193263653,0.17508239193263653
80,80,0.46234434320537066,0.5,0,451.0,879.0,0.0,210.0,1,0.1925075150357874,0.1925075150357874
81,81,0.07841833497532336,0.1,0,315.0,772.0,1.0,2153.0,0,0.14066886741135448,0.14066886741135448
82,82,-0.6393529782123462,-0.6,1,419.0,841.0,1.0,180.0,1,0.10878088628739174,0.10878088628739174
83,83,0.6563605624947981,0.7,0,283.0,680.0,0.0,277.0,1,0.31187677086891513,0.31187677086891513
84,84,-0.7067391606920788,-0.7,1,365.0,540.0,1.0,295.0,1,0.38438415840244455,0.38438415840244455
85,85,0.19455036460241404,0.2,0,299.0,798.0,0.0,463.0,1,0.2658235191119456,0.2658235191119456
86,86,0.8808810480550151,0.9,0,434.0,799.0,0.0,347.0,1,0.48475684136301145,0.48475684136301145
87,87,-0.1648243058533061,-0.2,1,366.0,803.0,1.0,1131.0,1,0.3792164898675178,0.3792164898675178
88,88,-0.35600832223439305,-0.4,1,290.0,508.0,1.0,512.0,1,0.2663475009663583,0.2663475009663583
89,89,0.3885569099004056,0.4,0,288.0,964.0,0.0,888.0,1,0.0788453530124586,0.0788453530124586
90,90,0.3138276660488519,0.3,0,258.0,739.0,0.0,313.0,1,0.08318279866428818,0.08318279866428818
91,91,-0.04055638308677567,-0.0,1,398.0,883.0,1.0,1419.0,1,0.04204606055902299,0.04204606055902299
92,92,-0.9492707928497057,-0.9,1,482.0,708.0,1.0,220.0,1,0.46422343029941304,0.46422343029941304
93,93,0.6320621558137269,0.6,0,470.0,872.0,0.0,288.0,1,0.10273641189264271,0.10273641189264271
94,94,0.18009727078259763,0.2,0,480.0,930.0,0.0,740.0,1,0.47184716791271103,0.47184716791271103
95,95,-0.22617825294362048,-0.2,1,380.0,661.0,1.0,1189.0,1,0.027103973309428264,0.027103973309428264
96,96,-0.022378051875778793,-0.0,1,250.0,967.0,0.0,1293.0,0,0.22970530327478073,0.22970530327478073
97,97,-0.902604129444293,-0.9,1,396.0,947.0,1.0,297.0,1,0.04721667737180274,0.04721667737180274
98,98,0.7004604316700611,0.7,0,421.0,626.0,0.0,453.0,1,0.007744337493644393,0.007744337493644393
99,99,-0.9890450968356457,-1.0,1,345.0,853.0,1.0,252.0,1,0.07722799665714897,0.07722799665714897
100,100,0.3389228628640586,0.3,0,404.0,919.0,0.0,1487.0,1,0.15417856033964583,0.15417856033964583
101,101,-0.8814381434577947,-0.9,1,250.0,737.0,1.0,353.0,1,0.39323532086559176,0.39323532086559176
102,102,-0.4138404923557746,-0.4,1,448.0,864.0,1.0,358.0,1,0.23174647532255416,0.23174647532255416
103,103,-0.7150974064681612,-0.7,1,471.0,544.0,1.0,215.0,1,0.0771096683674991,0.0771096683674991
104,104,-0.8662697398378447,-0.9,1,272.0,535.0,1.0,363.0,1,0.09578099390778444,0.09578099390778444
105,105,-0.25464114282009787,-0.3,1,363.0,885.0,1.0,382.0,1,0.3211816062064655,0.3211816062064655
106,106,0.5047573190117742,0.5,0,429.0,847.0,0.0,454.0,1,0.31370081807597444,0.31370081807597444
107,107,-0.4188894649508752,-0.4,1,499.0,737.0,1.0,364.0,1,0.07315849383164891,0.07315849383164891
108,108,-0.09498854909289456,-0.1,1,281.0,863.0,1.0,506.0,1,0.45702623696471134,0.45702623696471134
109,109,0.48151445518653935,0.5,0,427.0,557.0,0.0,416.0,1,0.32172139776320574,0.32172139776320574
110,110,0.673351895463151,0.7,0,499.0,890.0,0.0,191.0,1,0.30348370562288607,0.30348370562288607
111,111,-0.6536166968659858,-0.7,1,404.0,717.0,1.0,509.0,1,0.3397889811563158,0.3397889811563158
112,112,0.7351340861324747,0.7,0,270.0,905.0,0.0,355.0,1,0.15592325132863682,0.15592325132863682
113,113,0.49765597129279304,0.5,0,305.0,704.0,0.0,341.0,1,0.12852479500834763,0.12852479500834763
114,114,-0.2980086418385146,-0.3,1,317.0,993.0,1.0,640.0,1,0.2461899104638085,0.2461899104638085
115,115,-0.8843306874338892,-0.9,1,405.0,565.0,1.0,170.0,1,0.4717290310458576,0.4717290310458576
116,116,-0.061686414790064203,-0.1,1,307.0,835.0,1.0,848.0,1,0.4804667590804838,0.4804667590804838
117,117,-0.6141783978729329,-0.6,1,257.0,880.0,1.0,483.0,1,0.00037257778658517093,0.00037257778658517093
118,118,-0.7305222645578193,-0.7,1,323.0,849.0,1.0,478.0,1,0.029684366947570706,0.029684366947570706
119,119,0.9543390991609138,1.0,0,497.0,952.0,0.0,261.0,1,0.44264618870531225,0.44264618870531225
120,120,0.6373846316050067,0.6,0,350.0,926.0,0.0,604.0,1,0.043697153308596914,0.043697153308596914
121,121,-0.24370220547500665,-0.2,1,267.0,741.0,1.0,352.0,1,0.20422892208157223,0.20422892208157223
122,122,-0.22519411285117963,-0.2,1,333.0,617.0,1.0,410.0,1,0.005609885661525482,0.005609885661525482
123,123,0.1260915459112082,0.1,0,426.0,762.0,0.0,372.0,1,0.4845506711961626,0.4845506711961626
124,124,-0.7862805824049888,-0.8,1,369.0,684.0,1.0,287.0,1,0.27417927116278584,0.27417927116278584
125,125,-0.4113068751286595,-0.4,1,320.0,682.0,1.0,228.0,1,0.007503734065927581,0.007503734065927581
126,126,0.588262652125547,0.6,0,425.0,829.0,0.0,506.0,1,0.17251986403389813,0.17251986403389813
127,127,0.2572155624885566,0.3,0,293.0,705.0,0.0,812.0,1,0.2621489997923006,0.2621489997923006
128,128,-0.639096313857509,-0.6,1,301.0,803.0,1.0,196.0,1,0.037067873704456356,0.037067873704456356
129,129,0.2003492758838883,0.2,0,271.0,620.0,0.0,619.0,1,0.25235807038686886,0.25235807038686886
130,130,0.22777569816876442,0.2,0,263.0,508.0,0.0,909.0,1,0.339806507182289,0.339806507182289
131,131,-0.5635222033692857,-0.6,1,402.0,905.0,1.0,413.0,1,0.4431465460954943,0.4431465460954943
132,132,-0.020654742313048313,-0.0,1,393.0,586.0,0.0,791.0,0,0.34842938430808273,0.34842938430808273
133,133,0.6357986749835645,0.6,0,456.0,682.0,0.0,392.0,1,0.36616517568846685,0.36616517568846685
134,134,0.06495427072433801,0.1,0,311.0,521.0,0.0,468.0,1,0.1768274070630888,0.1768274070630888
135,135,-0.8406379790934762,-0.8,1,490.0,888.0,1.0,252.0,1,0.17998819652766962,0.17998819652766962
136,136,0.5275323178908942,0.5,0,357.0,875.0,0.0,378.0,1,0.009831557559510429,0.009831557559510429
137,137,-0.2749680478415597,-0.3,1,431.0,767.0,1.0,442.0,1,0.2964785487917349,0.2964785487917349
138,138,0.29113685552362245,0.3,0,421.0,704.0,0.0,265.0,1,0.2711597356098855,0.2711597356098855
139,139,-0.1365825022322238,-0.1,1,466.0,550.0,1.0,954.0,1,0.03467718020278987,0.03467718020278987
140,140,0.5757122332307514,0.6,0,358.0,638.0,0.0,444.0,1,0.19110079891555054,0.19110079891555054
141,141,0.060430367212443326,0.1,0,453.0,515.0,0.0,552.0,1,0.4429103130277077,0.4429103130277077
142,142,-0.2373818171530233,-0.2,1,306.0,843.0,0.0,761.0,0,0.40597709200796245,0.40597709200796245
143,143,-0.8510845599984918,-0.9,1,401.0,803.0,1.0,266.0,1,0.45431331180320333,0.45431331180320333
144,144,0.47550014202775803,0.5,0,368.0,698.0,0.0,524.0,1,0.29099184755957014,0.29099184755957014
145,145,-0.4822933727334997,-0.5,1,262.0,939.0,1.0,489.0,1,0.09335969546697165,0.09335969546697165
146,146,0.956572005885904,1.0,0,438.0,999.0,0.0,323.0,1,0.1484153441804394,0.1484153441804394
147,147,0.030753664955648574,0.0,0,399.0,646.0,0.0,2325.0,1,0.36253632424334986,0.36253632424334986
148,148,0.014971252438856553,0.0,0,310.0,632.0,0.0,558.0,1,0.3850521966689532,0.3850521966689532
149,149,0.8637670299035733,0.9,0,451.0,901.0,0.0,268.0,1,0.3547196499326068,0.3547196499326068
150,150,-0.474496331688006,-0.5,1,448.0,990.0,1.0,322.0,1,0.028646408104220866,0.028646408104220866
151,151,0.21043087077367661,0.2,0,396.0,603.0,0.0,651.0,1,0.14585499040344418,0.14585499040344418
152,152,-0.311635536798885,-0.3,1,461.0,655.0,1.0,634.0,1,0.4712679825899089,0.4712679825899089
153,153,-0.3791436611318353,-0.4,1,416.0,636.0,1.0,438.0,1,0.11648739548863135,0.11648739548863135
154,154,0.5857013964470434,0.6,0,332.0,832.0,0.0,486.0,1,0.3700054092417634,0.3700054092417634
155,155,0.22051683675439593,0.2,0,366.0,955.0,0.0,609.0,1,0.49154514673824207,0.49154514673824207
156,156,-0.8521143638118958,-0.9,1,452.0,765.0,1.0,303.0,1,0.14588661857278934,0.14588661857278934
157,157,-0.4028634925148027,-0.4,1,465.0,913.0,1.0,322.0,1,0.4260212844447069,0.4260212844447069
158,158,-0.9122940420078072,-0.9,1,479.0,687.0,1.0,264.0,1,0.35702629477688047,0.35702629477688047
159,159,0.07619513829230251,0.1,0,320.0,513.0,0.0,297.0,1,0.27494893248166397,0.27494893248166397
160,160,0.34464891265822506,0.3,0,362.0,916.0,0.0,242.0,1,0.47508959053777144,0.47508959053777144
161,161,0.46194425091980595,0.5,0,306.0,900.0,0.0,684.0,1,0.4972773531935974,0.4972773531935974
162,162,0.332655924994832,0.3,0,343.0,802.0,0.0,805.0,1,0.4882844245669366,0.4882844245669366
163,163,0.3915920991399915,0.4,0,491.0,665.0,0.0,434.0,1,0.25316769211145546,0.25316769211145546
164,164,0.18098702099172437,0.2,0,279.0,765.0,0.0,766.0,1,0.2223113614180104,0.2223113614180104
165,165,-0.2689142281770247,-0.3,1,474.0,726.0,1.0,250.0,1,0.4252486341610653,0.4252486341610653
166,166,-0.8251335141381779,-0.8,1,424.0,722.0,1.0,264.0,1,0.10055693262525489,0.10055693262525489
167,167,-0.47493427255333787,-0.5,1,482.0,673.0,1.0,345.0,1,0.030434491360249505,0.030434491360249505
168,168,0.40691546627217456,0.4,0,289.0,541.0,0.0,620.0,1,0.13771974294442169,0.13771974294442169
169,169,0.22433835010750025,0.2,0,421.0,789.0,0.0,490.0,1,0.41327812147586346,0.41327812147586346
170,170,0.7480563900792092,0.7,0,462.0,871.0,0.0,487.0,1,0.05042511251094456,0.05042511251094456
171,171,-0.09119863852722543,-0.1,1,460.0,624.0,1.0,196.0,1,0.1190686139419932,0.1190686139419932
172,172,0.8561612535232381,0.9,0,429.0,981.0,0.0,200.0,1,0.16289433234588802,0.16289433234588802
173,173,0.13942406061606127,0.1,0,311.0,877.0,0.0,1882.0,1,0.36236675356114956,0.36236675356114956
174,174,-0.30599446788438267,-0.3,1,307.0,824.0,1.0,259.0,1,0.1866522122627493,0.1866522122627493
175,175,-0.5116745958086402,-0.5,1,325.0,862.0,1.0,233.0,1,0.06731476122654273,0.06731476122654273
176,176,-0.17620650191149045,-0.2,1,303.0,904.0,1.0,473.0,1,0.22063707065358945,0.22063707065358945
177,177,-0.3704215656223975,-0.4,1,318.0,661.0,1.0,411.0,1,0.48511458229860804,0.48511458229860804
178,178,-0.9566660400515166,-1.0,1,378.0,652.0,1.0,240.0,1,0.38390544829856427,0.38390544829856427
179,179,-0.37705199474852713,-0.4,1,253.0,775.0,1.0,332.0,1,0.29413846997578935,0.29413846997578935
180,180,-0.38935768040427754,-0.4,1,494.0,774.0,1.0,412.0,1,0.1371025690461365,0.1371025690461365
181,181,0.7353342572906774,0.7,0,325.0,982.0,0.0,243.0,1,0.4056040761358834,0.4056040761358834
182,182,0.6722690322904439,0.7,0,300.0,778.0,0.0,312.0,1,0.4172316235660654,0.4172316235660654
183,183,-0.643691142843452,-0.6,1,364.0,759.0,1.0,247.0,1,0.042506935651963285,0.042506935651963285
184,184,0.3145837342669595,0.3,0,312.0,729.0,0.0,359.0,1,0.48383142946380875,0.48383142946380875
185,185,-0.10217807936450396,-0.1,1,287.0,946.0,1.0,347.0,1,0.3520821893293559,0.3520821893293559
186,186,-0.2216539526175949,-0.2,1,358.0,874.0,1.0,488.0,1,0.3961125475037409,0.3961125475037409
187,187,0.4341406918506949,0.4,0,372.0,853.0,0.0,405.0,1,0.019868053906312744,0.019868053906312744
188,188,-0.3519970039955893,-0.4,1,360.0,511.0,1.0,359.0,1,0.002800187616499028,0.002800187616499028
189,189,-0.1808337574752641,-0.2,1,497.0,716.0,1.0,337.0,1,0.42057106499634295,0.42057106499634295
190,190,-0.37273315549051755,-0.4,1,416.0,912.0,1.0,522.0,1,0.4622447119751953,0.4622447119751953
191,191,0.19816213535174243,0.2,0,268.0,504.0,0.0,508.0,1,0.012061688289854822,0.012061688289854822
192,192,0.3916546439698003,0.4,0,351.0,565.0,0.0,344.0,1,0.027072837101617897,0.027072837101617897
193,193,0.07575852281533235,0.1,0,465.0,965.0,0.0,750.0,1,0.26635434421599025,0.26635434421599025
194,194,-0.9123239153942639,-0.9,1,270.0,821.0,1.0,249.0,1,0.1629901699138397,0.1629901699138397
195,195,-0.4879094302823255,-0.5,1,371.0,887.0,1.0,602.0,1,0.029037483727235747,0.029037483727235747
196,196,0.4509446953091234,0.5,0,291.0,961.0,0.0,918.0,1,0.3292541019250787,0.3292541019250787
197,197,0.863048296129644,0.9,0,287.0,501.0,0.0,252.0,1,0.1107629156832014,0.1107629156832014
198,198,0.7071633186569872,0.7,0,405.0,538.0,0.0,127.0,1,0.4897469962710149,0.4897469962710149
199,199,-0.69471952952823,-0.7,1,274.0,940.0,1.0,446.0,1,0.3735251494987339,0.3735251494987339
200,200,0.7571642321613758,0.8,0,301.0,857.0,0.0,252.0,1,0.014966863386635443,0.014966863386635443
201,201,-0.46338534419398614,-0.5,1,441.0,655.0,1.0,504.0,1,0.1842603713498681,0.1842603713498681
202,202,-0.5064932186760422,-0.5,1,334.0,615.0,1.0,441.0,1,0.28376476936614153,0.28376476936614153
203,203,-0.9062297527643643,-0.9,1,473.0,801.0,1.0,266.0,1,0.12865690800285096,0.12865690800285096
204,204,-0.1609690096954297,-0.2,1,400.0,768.0,1.0,592.0,1,0.022673173722003004,0.022673173722003004
205,205,-0.09351775192492262,-0.1,1,281.0,754.0,1.0,1835.0,1,0.15327574575452313,0.15327574575452313
206,206,-0.5041881788942444,-0.5,1,430.0,738.0,1.0,832.0,1,0.4378638289251233,0.4378638289251233
207,207,0.5234198235272245,0.5,0,301.0,843.0,0.0,566.0,1,0.14245213086925212,0.14245213086925212
208,208,-0.07483824337853684,-0.1,1,335.0,633.0,1.0,1822.0,1,0.15403147697156966,0.15403147697156966
209,209,0.8804596463450736,0.9,0,355.0,650.0,0.0,245.0,1,0.054180346137166935,0.054180346137166935
210,210,0.5955774963620546,0.6,0,437.0,735.0,0.0,628.0,1,0.4952226309533854,0.4952226309533854
211,211,-0.2312128948632819,-0.2,1,259.0,849.0,1.0,452.0,1,0.3694539929830757,0.3694539929830757
212,212,-0.10433064433207173,-0.1,1,287.0,744.0,1.0,539.0,1,0.07822860406081672,0.07822860406081672
213,213,0.5302780988153188,0.5,0,439.0,907.0,0.0,364.0,1,0.49062606518612895,0.49062606518612895
214,214,0.8441254759026151,0.8,0,419.0,994.0,0.0,327.0,1,0.19702397261105897,0.19702397261105897
215,215,-0.1878601743296664,-0.2,1,327.0,947.0,1.0,1126.0,1,0.4252631152627946,0.4252631152627946
216,216,-0.5293933445781271,-0.5,1,252.0,989.0,1.0,359.0,1,0.40656950825477606,0.40656950825477606
217,217,-0.6173574858400825,-0.6,1,266.0,890.0,1.0,374.0,1,0.030611351525434982,0.030611351525434982
218,218,-0.2716918770095611,-0.3,1,432.0,916.0,1.0,1462.0,1,0.11398329169728466,0.11398329169728466
219,219,-0.5030255919934761,-0.5,1,256.0,599.0,1.0,395.0,1,0.1223388159175321,0.1223388159175321
220,220,0.24441904109330514,0.2,0,426.0,632.0,0.0,792.0,1,0.3560208270633308,0.3560208270633308
221,221,-0.22272656696131565,-0.2,1,430.0,539.0,1.0,421.0,1,0.20510445080155965,0.20510445080155965
222,222,0.6648561330673839,0.7,0,274.0,611.0,0.0,285.0,1,0.4288257638589571,0.4288257638589571
223,223,-0.5618078008569716,-0.6,1,460.0,721.0,1.0,459.0,1,0.319326777268881,0.319326777268881
224,224,0.591854814533161,0.6,0,394.0,708.0,0.0,408.0,1,0.0112584620539386,0.0112584620539386
225,225,0.3646874279098544,0.4,0,442.0,548.0,0.0,360.0,1,0.36905004582010514,0.36905004582010514
226,226,0.5956632195707079,0.6,0,355.0,568.0,0.0,347.0,1,0.47130455664959764,0.47130455664959764
227,227,-0.6447840212601723,-0.6,1,412.0,699.0,1.0,189.0,1,0.2829781837145729,0.2829781837145729
228,228,-0.07074459310829262,-0.1,1,430.0,643.0,0.0,697.0,0,0.21681906524204425,0.21681906524204425
229,229,0.8657726805288666,0.9,0,459.0,501.0,0.0,230.0,1,0.45108186385435783,0.45108186385435783
230,230,-0.22024890511360695,-0.2,1,287.0,981.0,1.0,722.0,1,0.031638347450548165,0.031638347450548165
231,231,-0.8127193926567449,-0.8,1,276.0,978.0,1.0,326.0,1,0.18834431518548828,0.18834431518548828
232,232,-0.6197326440918491,-0.6,1,328.0,875.0,1.0,187.0,1,0.16171917327142743,0.16171917327142743
233,233,-0.620159131408426,-0.6,1,309.0,556.0,1.0,285.0,1,0.48998002431468873,0.48998002431468873
234,234,0.3052701113142515,0.3,0,430.0,744.0,0.0,796.0,1,0.4947127742933235,0.4947127742933235
235,235,-0.3124278566757255,-0.3,1,295.0,543.0,1.0,882.0,1,0.4797355860437788,0.4797355860437788
236,236,-0.6782590700255366,-0.7,1,360.0,679.0,1.0,371.0,1,0.4299677322309616,0.4299677322309616
237,237,0.8977441178370102,0.9,0,362.0,671.0,0.0,237.0,1,0.2778906215379551,0.2778906215379551
238,238,0.13414116167051682,0.1,0,343.0,884.0,0.0,633.0,1,0.07969339382924373,0.07969339382924373
239,239,-0.2739623236890172,-0.3,1,290.0,924.0,1.0,316.0,1,0.1379384363353715,0.1379384363353715
240,240,0.7818199123956622,0.8,0,308.0,665.0,0.0,647.0,1,0.10893683723795977,0.10893683723795977
241,241,0.004050080493825048,0.0,0,393.0,547.0,0.0,1120.0,1,0.06317160686865747,0.06317160686865747
242,242,-0.6256656749435456,-0.6,1,498.0,918.0,1.0,224.0,1,0.3477278680367018,0.3477278680367018
243,243,0.8302878638553535,0.8,0,470.0,974.0,0.0,196.0,1,0.43228468601588366,0.43228468601588366
244,244,0.5820409556374817,0.6,0,333.0,721.0,0.0,266.0,1,0.005198301961159557,0.005198301961159557
245,245,-0.6429918987739522,-0.6,1,410.0,696.0,1.0,384.0,1,0.040504311093491896,0.040504311093491896
246,246,0.5465592270752568,0.5,0,401.0,668.0,0.0,411.0,1,0.33511026938785954,0.33511026938785954
247,247,0.4917982732946944,0.5,0,460.0,748.0,0.0,222.0,1,0.0540521637846898,0.0540521637846898
248,248,-0.03180362032070505,-0.0,1,444.0,823.0,1.0,633.0,1,0.4303676234708948,0.4303676234708948
249,249,0.8833585807224538,0.9,0,307.0,757.0,0.0,136.0,1,0.39386010563311513,0.39386010563311513
250,250,0.4756306066345759,0.5,0,431.0,699.0,0.0,410.0,1,0.054426299657408084,0.054426299657408084
251,251,0.18449765530311368,0.2,0,389.0,870.0,0.0,441.0,1,0.12102349071069096,0.12102349071069096
252,252,-0.4650431220521789,-0.5,1,287.0,928.0,1.0,295.0,1,0.13315668013204202,0.13315668013204202
253,253,0.4700128784877091,0.5,0,358.0,555.0,0.0,407.0,1,0.0071266711687894,0.0071266711687894
254,254,-0.8922372367587053,-0.9,1,320.0,783.0,1.0,327.0,1,0.31284072405526114,0.31284072405526114
255,255,0.6054531579413829,0.6,0,270.0,680.0,0.0,480.0,1,0.0714442859084578,0.0714442859084578
256,256,0.38708394898076093,0.4,0,291.0,748.0,0.0,661.0,1,0.21986052121044442,0.21986052121044442
257,257,0.976796052009359,1.0,0,423.0,849.0,0.0,278.0,1,0.006081306213979953,0.006081306213979953
258,258,0.18338597087168718,0.2,0,495.0,978.0,0.0,467.0,1,0.14091404858449685,0.14091404858449685
259,259,0.3194683765117883,0.3,0,458.0,991.0,0.0,341.0,1,0.24105593813718373,0.24105593813718373
260,260,0.9196709126933582,0.9,0,452.0,710.0,0.0,318.0,1,0.36612463311110277,0.36612463311110277
261,261,0.3511034344615467,0.4,0,481.0,812.0,0.0,447.0,1,0.17774510362968043,0.17774510362968043
262,262,-0.03782772493110298,-0.0,1,417.0,618.0,1.0,995.0,1,0.0863368385310112,0.0863368385310112
263,263,-0.3919659641574009,-0.4,1,484.0,935.0,1.0,391.0,1,0.35719418786158547,0.35719418786158547
264,264,-0.9706655003586657,-1.0,1,482.0,970.0,1.0,398.0,1,0.023225299482156125,0.023225299482156125
265,265,0.5740625577808387,0.6,0,337.0,619.0,0.0,434.0,1,0.31377559166974,0.31377559166974
266,266,0.9914091216712952,1.0,0,369.0,772.0,0.0,259.0,1,0.412035818391672,0.412035818391672
267,267,0.4873776395957181,0.5,0,466.0,604.0,0.0,270.0,1,0.446909672948799,0.446909672948799
268,268,0.18398921218147435,0.2,0,282.0,855.0,0.0,293.0,1,0.3877451699599592,0.3877451699599592
269,269,0.37873135520477197,0.4,0,303.0,759.0,0.0,398.0,1,0.41057416305316463,0.41057416305316463
270,270,0.8422796105511026,0.8,0,281.0,892.0,0.0,207.0,1,0.0765382500225868,0.0765382500225868
271,271,-0.815304913335914,-0.8,1,441.0,763.0,1.0,366.0,1,0.08383874221837745,0.08383874221837745
272,272,0.22879508974239604,0.2,0,434.0,778.0,0.0,428.0,1,0.4207327352471802,0.4207327352471802
273,273,-0.16800645558756488,-0.2,1,419.0,576.0,1.0,385.0,1,0.05501410350284153,0.05501410350284153
274,274,-0.34813665196922483,-0.3,1,263.0,940.0,1.0,317.0,1,0.13093646409809767,0.13093646409809767
275,275,-0.21775271805236196,-0.2,1,381.0,567.0,1.0,602.0,1,0.3336331519215479,0.3336331519215479
276,276,-0.2720543673855509,-0.3,1,264.0,942.0,1.0,214.0,1,0.3788455695478898,0.3788455695478898
277,277,-0.817317209034695,-0.8,1,389.0,736.0,1.0,205.0,1,0.44060234326111586,0.44060234326111586
278,278,0.8605557801464334,0.9,0,304.0,623.0,0.0,163.0,1,0.12664593551676862,0.12664593551676862
279,279,-0.735229380733964,-0.7,1,471.0,584.0,1.0,295.0,1,0.3320865292622331,0.3320865292622331
280,280,0.9006714514545147,0.9,0,405.0,910.0,0.0,345.0,1,0.4340992468620568,0.4340992468620568
281,281,0.8265754099423892,0.8,0,361.0,627.0,0.0,212.0,1,0.4738551101718238,0.4738551101718238
282,282,0.8802548496978533,0.9,0,395.0,597.0,0.0,218.0,1,0.4200110709201412,0.4200110709201412
283,283,0.6830221305638067,0.7,0,385.0,895.0,0.0,230.0,1,0.30299137222233724,0.30299137222233724
284,284,0.5387820198297069,0.5,0,265.0,857.0,0.0,328.0,1,0.0488889860393828,0.0488889860393828
285,285,-0.3990640903892577,-0.4,1,317.0,689.0,1.0,364.0,1,0.3228942335054967,0.3228942335054967
286,286,0.6513198816889241,0.7,0,255.0,954.0,0.0,521.0,1,0.06773872794311586,0.06773872794311586
287,287,-0.18113416015076012,-0.2,1,259.0,737.0,1.0,384.0,1,0.0235269688216187,0.0235269688216187
288,288,-0.14154500092783406,-0.1,1,365.0,556.0,1.0,379.0,1,0.48762790719613724,0.48762790719613724
289,289,0.9820711962100612,1.0,0,445.0,769.0,0.0,226.0,1,0.2492827745068566,0.2492827745068566
290,290,0.224186689259531,0.2,0,362.0,966.0,0.0,1022.0,1,0.2776093089579769,0.2776093089579769
291,291,-0.49538546977369924,-0.5,1,292.0,639.0,1.0,309.0,1,0.32581078108473893,0.32581078108473893
292,292,0.10980582232975689,0.1,0,450.0,696.0,0.0,524.0,1,0.2163502149845833,0.2163502149845833
293,293,0.30523756118903655,0.3,0,465.0,886.0,0.0,489.0,1,0.321149826051478,0.321149826051478
294,294,-0.06251819192413688,-0.1,1,307.0,954.0,0.0,599.0,0,0.3253769208985231,0.3253769208985231
295,295,-0.38529632176479733,-0.4,1,288.0,994.0,1.0,718.0,1,0.18309766967847851,0.18309766967847851
296,296,-0.682730322051333,-0.7,1,380.0,967.0,1.0,263.0,1,0.0967901796530608,0.0967901796530608
297,297,-0.8449191818893109,-0.8,1,378.0,795.0,1.0,297.0,1,0.17878688901090295,0.17878688901090295
298,298,-0.7466309149301631,-0.7,1,406.0,731.0,1.0,103.0,1,0.223868548950805,0.223868548950805
299,299,-0.8939893836336092,-0.9,1,294.0,909.0,1.0,197.0,1,0.02905555491703915,0.02905555491703915
300,300,0.9966486149309972,1.0,0,352.0,954.0,0.0,394.0,1,0.3433769028100543,0.3433769028100543
301,301,0.3320771921600816,0.3,0,497.0,757.0,0.0,366.0,1,0.2977299436628775,0.2977299436628775
302,302,0.24251366342290792,0.2,0,269.0,541.0,0.0,420.0,1,0.095441647558407,0.095441647558407
303,303,-0.36226256104074017,-0.4,1,369.0,754.0,1.0,377.0,1,0.059391314560998554,0.059391314560998554
304,304,-0.3341085170600757,-0.3,1,376.0,723.0,1.0,471.0,1,0.44370440145898077,0.44370440145898077
305,305,0.27378421643934714,0.3,0,419.0,917.0,0.0,574.0,1,0.4297251202543117,0.4297251202543117
306,306,-0.3146323857187092,-0.3,1,411.0,572.0,1.0,227.0,1,0.23078957216160467,0.23078957216160467
307,307,-0.20994860479051014,-0.2,1,484.0,934.0,1.0,932.0,1,0.24364488506016413,0.24364488506016413
308,308,-0.6210600252049967,-0.6,1,445.0,633.0,1.0,192.0,1,0.21251640145066902,0.21251640145066902
309,309,-0.8926639122505311,-0.9,1,378.0,968.0,1.0,264.0,1,0.32390021027319726,0.32390021027319726
310,310,-0.4251224625427117,-0.4,1,427.0,828.0,1.0,565.0,1,0.27818323822216223,0.27818323822216223
311,311,-0.862468800853468,-0.9,1,456.0,821.0,1.0,153.0,1,0.12123166100906302,0.12123166100906302
312,312,0.9810282416071239,1.0,0,402.0,640.0,0.0,188.0,1,0.002567548383711149,0.002567548383711149
313,313,0.20302348800310988,0.2,0,254.0,542.0,0.0,624.0,1,0.26256305555804255,0.26256305555804255
314,314,-0.8063266154582867,-0.8,1,283.0,645.0,1.0,412.0,1,0.3544719109663451,0.3544719109663451
315,315,0.49438808078365293,0.5,0,316.0,713.0,0.0,421.0,1,0.4823152992722122,0.4823152992722122
316,316,0.31305842873473066,0.3,0,253.0,579.0,0.0,368.0,1,0.01535286009512793,0.01535286009512793
317,317,-0.7001823738506245,-0.7,1,437.0,817.0,1.0,246.0,1,0.32158004297720194,0.32158004297720194
318,318,0.030136435779791082,0.0,0,420.0,876.0,1.0,1004.0,0,0.3001109017924458,0.3001109017924458
319,319,0.8037120111197744,0.8,0,414.0,764.0,0.0,202.0,1,0.3941628357726798,0.3941628357726798
320,320,-0.5403169767898446,-0.5,1,417.0,717.0,1.0,356.0,1,0.2102473494645858,0.2102473494645858
321,321,0.7461921360477752,0.7,0,283.0,525.0,0.0,312.0,1,0.2213648233559477,0.2213648233559477
322,322,0.1519525336113685,0.2,0,304.0,625.0,1.0,281.0,0,0.3749923452173739,0.3749923452173739
323,323,0.16712185033995897,0.2,0,377.0,930.0,0.0,913.0,1,0.04905634349091487,0.04905634349091487
324,324,0.11918252516945849,0.1,0,410.0,672.0,1.0,378.0,0,0.3564385233423265,0.3564385233423265
325,325,-0.48481250583637614,-0.5,1,297.0,995.0,1.0,348.0,1,0.31832329571713636,0.31832329571713636
326,326,0.05622150251474167,0.1,0,382.0,580.0,0.0,618.0,1,0.48003365332542425,0.48003365332542425
327,327,0.027232109459501386,0.0,0,427.0,604.0,0.0,2459.0,1,0.0016898691041992708,0.0016898691041992708
328,328,0.09496564310003963,0.1,0,469.0,997.0,0.0,374.0,1,0.4701042713704659,0.4701042713704659
329,329,-0.8811839641138988,-0.9,1,429.0,595.0,1.0,296.0,1,0.3706962162521071,0.3706962162521071
330,330,-0.25666448475391057,-0.3,1,387.0,664.0,1.0,309.0,1,0.32804819022288306,0.32804819022288306
331,331,0.17840288422403838,0.2,0,308.0,761.0,0.0,741.0,1,0.4246216348059998,0.4246216348059998
332,332,0.6250320430061407,0.6,0,469.0,958.0,0.0,243.0,1,0.08520224053262032,0.08520224053262032
333,333,0.5417169223368723,0.5,0,343.0,954.0,0.0,373.0,1,0.24364009111091112,0.24364009111091112
334,334,-0.6095001310369748,-0.6,1,486.0,559.0,1.0,395.0,1,0.24252949824990416,0.24252949824990416
335,335,0.9257032984280593,0.9,0,401.0,645.0,0.0,304.0,1,0.46996887996505854,0.46996887996505854
336,336,-0.6730854896707077,-0.7,1,389.0,817.0,1.0,504.0,1,0.1672322074849239,0.1672322074849239
337,337,-0.228211366634405,-0.2,1,321.0,855.0,1.0,254.0,1,0.27112521881968865,0.27112521881968865
338,338,0.4657024021536784,0.5,0,473.0,744.0,0.0,453.0,1,0.19558688790826095,0.19558688790826095
339,339,-0.9541034927095045,-1.0,1,489.0,684.0,1.0,217.0,1,0.05569159497429299,0.05569159497429299
340,340,-0.517111796439935,-0.5,1,294.0,861.0,1.0,435.0,1,0.31819147539976583,0.31819147539976583
341,341,0.18706100629537792,0.2,0,307.0,786.0,0.0,1327.0,1,0.485202676483944,0.485202676483944
342,342,0.18073602169023228,0.2,0,269.0,924.0,0.0,377.0,1,0.09208385335885505,0.09208385335885505
343,343,0.9868810406902209,1.0,0,323.0,787.0,0.0,290.0,1,0.08075511171224442,0.08075511171224442
344,344,0.15290788203121553,0.2,0,323.0,593.0,0.0,604.0,1,0.007787367637066223,0.007787367637066223
345,345,-0.6239609988595927,-0.6,1,332.0,729.0,1.0,299.0,1,0.17365473888771765,0.17365473888771765
346,346,-0.4127462000986104,-0.4,1,406.0,826.0,1.0,388.0,1,0.27777330017926966,0.27777330017926966
347,347,0.3423042162828853,0.3,0,284.0,839.0,0.0,397.0,1,0.36442457751749524,0.36442457751749524
348,348,0.2512922707737195,0.3,0,316.0,825.0,0.0,459.0,1,0.4187833464703646,0.4187833464703646
349,349,-0.014527816225119006,-0.0,1,288.0,653.0,0.0,1209.0,0,0.09712227301370768,0.09712227301370768
350,350,-0.7861438653546025,-0.8,1,272.0,563.0,1.0,455.0,1,0.03788866598729168,0.03788866598729168
351,351,-0.8832489071812031,-0.9,1,411.0,711.0,1.0,268.0,1,0.44914957168414327,0.44914957168414327
352,352,0.09064725419544573,0.1,0,432.0,903.0,1.0,1735.0,0,0.16438211130159391,0.16438211130159391
353,353,0.24510878606132258,0.2,0,423.0,850.0,0.0,637.0,1,0.14796987458490835,0.14796987458490835
354,354,0.43140256645888075,0.4,0,325.0,628.0,0.0,297.0,1,0.42795855903783875,0.42795855903783875
355,355,0.542587908474335,0.5,0,384.0,599.0,0.0,387.0,1,0.39374678463942603,0.39374678463942603
356,356,-0.920299660953094,-0.9,1,349.0,735.0,1.0,216.0,1,0.354230299183611,0.354230299183611
357,357,-0.36378737116196147,-0.4,1,466.0,978.0,1.0,356.0,1,0.1416410336609794,0.1416410336609794
358,358,-0.8825677100997209,-0.9,1,365.0,704.0,1.0,191.0,1,0.02168821155086048,0.02168821155086048
359,359,0.9884069985253499,1.0,0,336.0,899.0,0.0,305.0,1,0.27656654961035804,0.27656654961035804
360,360,0.8529673923897372,0.9,0,473.0,683.0,0.0,204.0,1,0.3440209039972722,0.3440209039972722
361,361,-0.2802527954298286,-0.3,1,272.0,968.0,1.0,1180.0,1,0.4097510949007083,0.4097510949007083
362,362,-0.03191062054512939,-0.0,1,431.0,698.0,0.0,2251.0,0,0.11534101892532456,0.11534101892532456
363,363,-0.9193585541670608,-0.9,1,449.0,510.0,1.0,191.0,1,0.44792731414460635,0.44792731414460635
364,364,-0.4167144130737248,-0.4,1,380.0,798.0,1.0,342.0,1,0.09263823868184251,0.09263823868184251
365,365,-0.2902345938356856,-0.3,1,417.0,809.0,1.0,564.0,1,0.34227781567944515,0.34227781567944515
366,366,0.7138521813421479,0.7,0,263.0,706.0,0.0,301.0,1,0.42385613892344504,0.42385613892344504
367,367,-0.803701379268356,-0.8,1,329.0,627.0,1.0,264.0,1,0.4348576312596145,0.4348576312596145
368,368,-0.9634138770321456,-1.0,1,407.0,921.0,1.0,232.0,1,0.2064347184721193,0.2064347184721193
369,369,-0.9630076808551744,-1.0,1,291.0,730.0,1.0,349.0,1,0.11614023322681499,0.11614023322681499
370,370,0.41327717318776624,0.4,0,361.0,897.0,0.0,252.0,1,0.12442324926725679,0.12442324926725679
371,371,0.9659959775606737,1.0,0,481.0,816.0,0.0,293.0,1,0.0591296922464461,0.0591296922464461
372,372,-0.32535705577690943,-0.3,1,352.0,624.0,1.0,364.0,1,0.08857124910716146,0.08857124910716146
373,373,0.037213252996165735,0.0,0,398.0,515.0,1.0,487.0,0,0.026270938392078835,0.026270938392078835
374,374,-0.6579136701563348,-0.7,1,317.0,823.0,1.0,220.0,1,0.14788980617494285,0.14788980617494285
375,375,0.5271011407632051,0.5,0,344.0,588.0,0.0,538.0,1,0.43659613530866187,0.43659613530866187
376,376,0.06150559711022496,0.1,0,362.0,859.0,1.0,1259.0,0,0.2907115647426307,0.2907115647426307
377,377,-0.6340000561446426,-0.6,1,480.0,992.0,1.0,238.0,1,0.34835374731682556,0.34835374731682556
378,378,-0.3713334236113959,-0.4,1,253.0,762.0,1.0,555.0,1,0.010071776701618018,0.010071776701618018
379,379,-0.18068214780057956,-0.2,1,364.0,797.0,0.0,769.0,0,0.10568945566410742,0.10568945566410742
380,380,0.489549053921428,0.5,0,340.0,605.0,0.0,315.0,1,0.3026743087609907,0.3026743087609907
381,381,-0.9630026476091091,-1.0,1,484.0,828.0,1.0,218.0,1,0.11745145002305063,0.11745145002305063
382,382,0.02078179815003134,0.0,0,251.0,740.0,0.0,759.0,1,0.3318332384082837,0.3318332384082837
383,383,-0.7037282029451863,-0.7,1,492.0,748.0,1.0,300.0,1,0.2982037449493354,0.2982037449493354
384,384,0.7513464275301718,0.8,0,292.0,845.0,0.0,293.0,1,0.26378469577892505,0.26378469577892505
385,385,-0.654333146722365,-0.7,1,439.0,872.0,1.0,329.0,1,0.023530396733435543,0.023530396733435543
386,386,-0.2869693667778186,-0.3,1,388.0,845.0,1.0,307.0,1,0.04901150778684954,0.04901150778684954
387,387,0.29356831139607875,0.3,0,441.0,623.0,0.0,836.0,1,0.07886094103907759,0.07886094103907759
388,388,0.15356105000108888,0.2,0,279.0,541.0,0.0,440.0,1,0.4817674060076206,0.4817674060076206
389,389,0.6526799001833155,0.7,0,450.0,869.0,0.0,321.0,1,0.4411495554795646,0.4411495554795646
390,390,-0.6087891856115475,-0.6,1,363.0,619.0,1.0,158.0,1,0.06019715996869379,0.06019715996869379
391,391,0.35212415932954144,0.4,0,416.0,987.0,0.0,1797.0,1,0.47561801086987765,0.47561801086987765
392,392,-0.8504663387919407,-0.9,1,316.0,961.0,1.0,223.0,1,0.2832082799053818,0.2832082799053818
393,393,0.06829091325312375,0.1,0,322.0,624.0,0.0,1374.0,1,0.13543182004568655,0.13543182004568655
394,394,-0.2886423568883101,-0.3,1,451.0,630.0,1.0,879.0,1,0.13259424433733608,0.13259424433733608
395,395,-0.9616937883656538,-1.0,1,329.0,860.0,1.0,231.0,1,0.4630223290729685,0.4630223290729685
396,396,-0.7655829720577407,-0.8,1,371.0,807.0,1.0,212.0,1,0.36872825619985317,0.36872825619985317
397,397,0.23846734044545514,0.2,0,426.0,861.0,0.0,493.0,1,0.08937132745534909,0.08937132745534909
398,398,-0.9514012343803737,-1.0,1,408.0,771.0,1.0,301.0,1,0.3252311384697196,0.3252311384697196
399,399,0.02527195860751208,0.0,0,407.0,581.0,0.0,542.0,1,0.3371267273083249,0.3371267273083249
400,400,0.44261503003886693,0.4,0,277.0,647.0,0.0,346.0,1,0.25784133614273463,0.25784133614273463
401,401,-0.6453692443590724,-0.6,1,263.0,773.0,1.0,284.0,1,0.16789221724817338,0.16789221724817338
402,402,-0.7470798692445524,-0.7,1,302.0,561.0,1.0,277.0,1,0.034802167232015624,0.034802167232015624
403,403,0.6877414292857567,0.7,0,486.0,554.0,0.0,310.0,1,0.0314436169158982,0.0314436169158982
404,404,-0.5013315125876032,-0.5,1,264.0,843.0,1.0,343.0,1,0.1038998336030792,0.1038998336030792
405,405,-0.024043004480951424,-0.0,1,312.0,649.0,1.0,639.0,1,0.44910730718198266,0.44910730718198266
406,406,0.4708751816230323,0.5,0,460.0,790.0,0.0,400.0,1,0.1521144134086787,0.1521144134086787
407,407,-0.6566046773906573,-0.7,1,304.0,714.0,1.0,352.0,1,0.08536136680640427,0.08536136680640427
408,408,0.024239507574859154,0.0,0,371.0,907.0,1.0,1592.0,0,0.06016295544652117,0.06016295544652117
409,409,-0.30168583890997236,-0.3,1,270.0,667.0,1.0,553.0,1,0.29474869512476964,0.29474869512476964
410,410,0.699395880617782,0.7,0,445.0,911.0,0.0,324.0,1,0.4861010379343389,0.4861010379343389
411,411,0.8886821497688075,0.9,0,412.0,890.0,0.0,238.0,1,0.19524387820010014,0.19524387820010014
412,412,-0.4531285996649881,-0.5,1,442.0,703.0,1.0,365.0,1,0.21346446390080615,0.21346446390080615
413,413,0.010469598185858242,0.0,0,394.0,525.0,1.0,1251.0,0,0.2156977767032901,0.2156977767032901
414,414,-0.2985696713833894,-0.3,1,362.0,736.0,1.0,312.0,1,0.30437588520997977,0.30437588520997977
415,415,-0.8038436983446362,-0.8,1,376.0,832.0,1.0,262.0,1,0.3206062011071849,0.3206062011071849
416,416,-0.9260896734787527,-0.9,1,298.0,976.0,1.0,256.0,1,0.35615995914413595,0.35615995914413595
417,417,0.4227276517523124,0.4,0,456.0,694.0,0.0,300.0,1,0.3166205180222401,0.3166205180222401
418,418,0.18167340787274644,0.2,0,291.0,620.0,1.0,519.0,0,0.14203714334753037,0.14203714334753037
419,419,0.8180717209483772,0.8,0,446.0,931.0,0.0,223.0,1,0.19769718281550225,0.19769718281550225
420,420,0.4031949427756438,0.4,0,429.0,729.0,0.0,742.0,1,0.17438821702023372,0.17438821702023372
421,421,-0.11238084176962837,-0.1,1,381.0,663.0,1.0,656.0,1,0.4512245222461019,0.4512245222461019
422,422,-0.45450081788374286,-0.5,1,491.0,810.0,1.0,329.0,1,0.36307553247873225,0.36307553247873225
423,423,-0.5415221123446752,-0.5,1,417.0,709.0,1.0,324.0,1,0.3431433219689641,0.3431433219689641
424,424,0.8563656568016511,0.9,0,387.0,660.0,0.0,303.0,1,0.4400545543782927,0.4400545543782927
425,425,0.9433592993205102,0.9,0,318.0,917.0,0.0,545.0,1,0.10818804707302554,0.10818804707302554
426,426,0.007966353108059154,0.0,0,366.0,803.0,1.0,491.0,0,0.41869208156520493,0.41869208156520493
427,427,-0.38483556848518674,-0.4,1,404.0,531.0,1.0,425.0,1,0.18274467585715004,0.18274467585715004
428,428,-0.5440370865461923,-0.5,1,467.0,797.0,1.0,446.0,1,0.0044325142149960195,0.0044325142149960195
429,429,-0.5215837297439361,-0.5,1,326.0,735.0,1.0,159.0,1,0.31601939751336383,0.31601939751336383
430,430,-0.2033472534120646,-0.2,1,497.0,980.0,1.0,193.0,1,0.33566232104141186,0.33566232104141186
431,431,0.9087999822648667,0.9,0,316.0,964.0,0.0,320.0,1,0.4726155930503778,0.4726155930503778
432,432,-0.8561595838807645,-0.9,1,342.0,811.0,1.0,177.0,1,0.07507971951927578,0.07507971951927578
433,433,-0.6775655458254177,-0.7,1,364.0,807.0,1.0,299.0,1,0.25817294552638154,0.25817294552638154
434,434,0.6017756457787573,0.6,0,487.0,721.0,0.0,182.0,1,0.20448860715070044,0.20448860715070044
435,435,-0.7210363096389809,-0.7,1,446.0,525.0,1.0,329.0,1,0.14996658934518692,0.14996658934518692
436,436,0.8109239479858554,0.8,0,336.0,545.0,0.0,309.0,1,0.061748369273027626,0.061748369273027626
437,437,-0.062007457958769496,-0.1,1,439.0,766.0,1.0,475.0,1,0.2993050610139948,0.2993050610139948
438,438,0.4096145858091007,0.4,0,315.0,736.0,0.0,399.0,1,0.13331652869566607,0.13331652869566607
439,439,0.5120146822430758,0.5,0,333.0,786.0,0.0,381.0,1,0.48820246585740157,0.48820246585740157
440,440,0.3132908337743727,0.3,0,261.0,752.0,0.0,347.0,1,0.12554933538777874,0.12554933538777874
441,441,0.24449128431198086,0.2,0,473.0,774.0,0.0,653.0,1,0.14649462902618066,0.14649462902618066
442,442,-0.9477991627844944,-0.9,1,273.0,753.0,1.0,204.0,1,0.07505398977930267,0.07505398977930267
443,443,-0.04634655025468093,-0.0,1,385.0,697.0,1.0,648.0,1,0.4960524151365401,0.4960524151365401
444,444,-0.22442695215704278,-0.2,1,404.0,598.0,1.0,858.0,1,0.290777139934245,0.290777139934245
445,445,-0.43271955959443575,-0.4,1,443.0,619.0,1.0,258.0,1,0.025618691863145304,0.025618691863145304
446,446,-0.20873790863879216,-0.2,1,445.0,640.0,1.0,245.0,1,0.2248919898114357,0.2248919898114357
447,447,-0.45996079205830154,-0.5,1,447.0,790.0,1.0,283.0,1,0.10365061223673089,0.10365061223673089
448,448,0.5425865751932517,0.5,0,251.0,984.0,0.0,405.0,1,0.25588739685068673,0.25588739685068673
449,449,0.5453166937178031,0.5,0,337.0,794.0,0.0,289.0,1,0.3561640957762529,0.3561640957762529
450,450,-0.5082643757907812,-0.5,1,306.0,845.0,1.0,499.0,1,0.017446223684975504,0.017446223684975504
451,451,-0.482772130798407,-0.5,1,250.0,572.0,1.0,368.0,1,0.415478857866309,0.415478857866309
452,452,0.07952179479229637,0.1,0,258.0,773.0,0.0,759.0,1,0.3557060179111551,0.3557060179111551
453,453,-0.6595258363484597,-0.7,1,267.0,585.0,1.0,268.0,1,0.47511071560649176,0.47511071560649176
454,454,-0.35798239644500285,-0.4,1,284.0,779.0,1.0,287.0,1,0.48315278278908647,0.48315278278908647
455,455,0.7650953054756273,0.8,0,478.0,757.0,0.0,255.0,1,0.04136651310119388,0.04136651310119388
456,456,-0.300178203222625,-0.3,1,474.0,826.0,1.0,780.0,1,0.33053822978988895,0.33053822978988895
457,457,-0.813511772727411,-0.8,1,453.0,721.0,1.0,416.0,1,0.3587335667251182,0.3587335667251182
458,458,0.9661293726724169,1.0,0,332.0,978.0,0.0,240.0,1,0.09911897436938932,0.09911897436938932
459,459,-0.3877469359270247,-0.4,1,350.0,806.0,1.0,364.0,1,0.2601831553389818,0.2601831553389818
460,460,0.5454627931223155,0.5,0,493.0,696.0,0.0,301.0,1,0.011063366783650441,0.011063366783650441
461,461,0.7501219173666185,0.8,0,394.0,927.0,0.0,259.0,1,0.20719518348177218,0.20719518348177218
462,462,0.6788061035969077,0.7,0,308.0,906.0,0.0,226.0,1,0.43978093483558794,0.43978093483558794
463,463,0.053001502937197076,0.1,0,322.0,657.0,1.0,1431.0,0,0.4250594268554508,0.4250594268554508
464,464,0.09256953602653528,0.1,0,455.0,920.0,0.0,1365.0,1,0.26194309541013894,0.26194309541013894
465,465,0.18117550790987225,0.2,0,413.0,729.0,0.0,498.0,1,0.08930032865424742,0.08930032865424742
466,466,-0.03772735817025907,-0.0,1,453.0,581.0,1.0,926.0,1,0.06919452352293759,0.06919452352293759
467,467,0.6991017086148585,0.7,0,448.0,900.0,0.0,252.0,1,0.18285160796666405,0.18285160796666405
468,468,0.15856499487190656,0.2,0,320.0,605.0,0.0,1185.0,1,0.3773456969599772,0.3773456969599772
469,469,-0.20214834296471773,-0.2,1,401.0,775.0,1.0,214.0,1,0.15514436172861723,0.15514436172861723
470,470,-0.5925921027513861,-0.6,1,433.0,997.0,1.0,390.0,1,0.4373423525248022,0.4373423525248022
471,471,-0.5085024236172158,-0.5,1,251.0,818.0,1.0,521.0,1,0.26794639646760093,0.26794639646760093
472,472,0.8232895046472504,0.8,0,405.0,955.0,0.0,400.0,1,0.3995765475208495,0.3995765475208495
473,473,-0.36356839646059025,-0.4,1,496.0,793.0,1.0,711.0,1,0.1568829846811629,0.1568829846811629
474,474,-0.543822278678338,-0.5,1,250.0,980.0,1.0,590.0,1,0.4499596959333828,0.4499596959333828
475,475,0.7339558386476075,0.7,0,365.0,573.0,0.0,372.0,1,0.057811729664702716,0.057811729664702716
476,476,-0.004485870248126078,-0.0,1,254.0,985.0,0.0,2161.0,0,0.060915293140223925,0.060915293140223925
477,477,-0.9392750119646469,-0.9,1,390.0,928.0,1.0,242.0,1,0.21795342635224535,0.21795342635224535
478,478,0.29350144096698205,0.3,0,407.0,827.0,0.0,316.0,1,0.3962884656298657,0.3962884656298657
479,479,-0.8477637873292616,-0.8,1,255.0,991.0,1.0,204.0,1,0.49507087042252546,0.49507087042252546
480,480,-0.940334555123187,-0.9,1,305.0,623.0,1.0,272.0,1,0.47398532364482265,0.47398532364482265
481,481,0.4257357811032123,0.4,0,323.0,655.0,0.0,672.0,1,0.15556649060212158,0.15556649060212158
482,482,-0.5920895603618384,-0.6,1,320.0,920.0,1.0,350.0,1,0.05821028590267918,0.05821028590267918
483,483,-0.48086641460013957,-0.5,1,434.0,613.0,1.0,353.0,1,0.16631842583333195,0.16631842583333195
484,484,0.3735737815916649,0.4,0,277.0,741.0,0.0,232.0,1,0.2136125590405319,0.2136125590405319
485,485,0.09245276640709355,0.1,0,326.0,597.0,0.0,1257.0,1,0.37595281205175674,0.37595281205175674
486,486,-0.4901390002752164,-0.5,1,439.0,629.0,1.0,372.0,1,0.05997216263741467,0.05997216263741467
487,487,-0.3920920421244498,-0.4,1,279.0,575.0,1.0,306.0,1,0.42872566463375417,0.42872566463375417
488,488,-0.10115082789873409,-0.1,1,486.0,585.0,1.0,1339.0,1,0.47212495227931456,0.47212495227931456
489,489,-0.032401887847620436,-0.0,1,475.0,581.0,1.0,504.0,1,0.1925087272304351,0.1925087272304351
490,490,0.9407325759270411,0.9,0,359.0,513.0,0.0,298.0,1,0.24787495001485393,0.24787495001485393
491,491,0.06350583481086947,0.1,0,494.0,673.0,1.0,733.0,0,0.1782634798720441,0.1782634798720441
492,492,0.9086113323799689,0.9,0,285.0,711.0,0.0,224.0,1,0.036909551959657116,0.036909551959657116
493,493,-0.4249931921300565,-0.4,1,311.0,683.0,1.0,306.0,1,0.33750951286763214,0.33750951286763214
494,494,0.5576394833192844,0.6,0,434.0,907.0,0.0,619.0,1,0.006995076419675117,0.006995076419675117
495,495,-0.8395756653463768,-0.8,1,464.0,650.0,1.0,336.0,1,0.15638897495469012,0.15638897495469012
496,496,0.5273043374779791,0.5,0,450.0,821.0,0.0,499.0,1,0.4458503086078035,0.4458503086078035
497,497,-0.6164865048836303,-0.6,1,473.0,635.0,1.0,302.0,1,0.004014671662516844,0.004014671662516844
498,498,-0.8659911218903618,-0.9,1,303.0,935.0,1.0,222.0,1,0.278725949090234,0.278725949090234
499,499,0.9019442610670465,0.9,0,380.0,657.0,0.0,563.0,1,0.38613996711051785,0.38613996711051785
500,500,-0.8394380476348109,-0.8,1,492.0,869.0,1.0,199.0,1,0.3312699681598274,0.3312699681598274
501,501,0.20806959015967164,0.2,0,344.0,525.0,0.0,651.0,1,0.3666435281414633,0.3666435281414633
502,502,-0.03402352152931298,-0.0,1,362.0,693.0,1.0,565.0,1,0.009416512727822901,0.009416512727822901
503,503,0.8859843280325705,0.9,0,347.0,881.0,0.0,292.0,1,0.1721919711991689,0.1721919711991689
504,504,0.623476505124201,0.6,0,480.0,945.0,0.0,395.0,1,0.26129357876534776,0.26129357876534776
505,505,-0.6004005353555648,-0.6,1,452.0,955.0,1.0,313.0,1,0.46338947807769715,0.46338947807769715
506,506,-0.5330917715972401,-0.5,1,460.0,638.0,1.0,232.0,1,0.060157641059302325,0.060157641059302325
507,507,0.2450602821249941,0.2,0,442.0,744.0,0.0,454.0,1,0.023593325065659976,0.023593325065659976
508,508,-0.5847048550120049,-0.6,1,416.0,603.0,1.0,471.0,1,0.4428717886951055,0.4428717886951055
509,509,-0.4048686370728263,-0.4,1,497.0,883.0,1.0,300.0,1,0.33919815720457586,0.33919815720457586
510,510,-0.877564866937691,-0.9,1,277.0,871.0,1.0,232.0,1,0.0322479526717791,0.0322479526717791
511,511,-0.8408424716684042,-0.8,1,363.0,703.0,1.0,404.0,1,0.0990400246341348,0.0990400246341348
512,512,0.33129509005165136,0.3,0,420.0,968.0,0.0,292.0,1,0.334210058833439,0.334210058833439
513,513,-0.3747031152202429,-0.4,1,459.0,958.0,1.0,1103.0,1,0.13315092519686766,0.13315092519686766
514,514,-0.8694885755254063,-0.9,1,455.0,594.0,1.0,171.0,1,0.4180943547398909,0.4180943547398909
515,515,-0.9728548693866346,-1.0,1,460.0,995.0,1.0,175.0,1,0.3332881423022629,0.3332881423022629
516,516,-0.8057178239605578,-0.8,1,411.0,833.0,1.0,406.0,1,0.36221515891427036,0.36221515891427036
517,517,0.4246050851044523,0.4,0,277.0,710.0,0.0,253.0,1,0.2578769210977026,0.2578769210977026
518,518,0.24806798123979035,0.2,0,350.0,621.0,0.0,409.0,1,0.3722313820574263,0.3722313820574263
519,519,0.6079997105415753,0.6,0,350.0,607.0,0.0,733.0,1,0.15850234255262352,0.15850234255262352
520,520,-0.8978402010103108,-0.9,1,387.0,940.0,1.0,263.0,1,0.15486407259242108,0.15486407259242108
521,521,0.018479814428904895,0.0,0,409.0,642.0,0.0,649.0,1,0.22158803251105874,0.22158803251105874
522,522,0.35034511435267124,0.4,0,325.0,659.0,0.0,846.0,1,0.2936920737322929,0.2936920737322929
523,523,0.033645257297076014,0.0,0,441.0,801.0,0.0,878.0,1,0.1034868886687198,0.1034868886687198
524,524,0.626686404841567,0.6,0,354.0,668.0,0.0,308.0,1,0.37432277680846704,0.37432277680846704
525,525,0.6547770504673367,0.7,0,465.0,620.0,0.0,625.0,1,0.3664156117087556,0.3664156117087556
526,526,0.9279420306343227,0.9,0,480.0,873.0,0.0,457.0,1,0.22504852370850376,0.22504852370850376
527,527,-0.21193906708238908,-0.2,1,278.0,533.0,1.0,259.0,1,0.39642641827518565,0.39642641827518565
528,528,0.48914510437511316,0.5,0,326.0,967.0,0.0,397.0,1,0.24112274399242078,0.24112274399242078
529,529,0.3808860144880024,0.4,0,419.0,546.0,0.0,325.0,1,0.1733694180660164,0.1733694180660164
530,530,-0.012639610804518364,-0.0,1,482.0,792.0,0.0,776.0,0,0.241898385883287,0.241898385883287
531,531,0.5401859155716293,0.5,0,468.0,747.0,0.0,505.0,1,0.42451960851354764,0.42451960851354764
532,532,-0.0010663885739479184,-0.0,1,498.0,703.0,1.0,269.0,1,0.1769513884340267,0.1769513884340267
533,533,-0.7432217062528876,-0.7,1,425.0,622.0,1.0,353.0,1,0.4522054303314135,0.4522054303314135
534,534,-0.026531966610374713,-0.0,1,441.0,879.0,0.0,1410.0,0,0.1805366970075572,0.1805366970075572
535,535,0.1519225688696535,0.2,0,380.0,951.0,0.0,829.0,1,0.2782215834024974,0.2782215834024974
536,536,-0.8448845955810851,-0.8,1,327.0,839.0,1.0,404.0,1,0.27935055754122384,0.27935055754122384
537,537,0.8914887294357059,0.9,0,260.0,723.0,0.0,347.0,1,0.42449526280285,0.42449526280285
538,538,-0.6865110826238743,-0.7,1,359.0,511.0,1.0,330.0,1,0.047983407481788254,0.047983407481788254
539,539,-0.2982008230999953,-0.3,1,471.0,926.0,1.0,433.0,1,0.043565885147552885,0.043565885147552885
540,540,0.6885633703469931,0.7,0,334.0,956.0,0.0,230.0,1,0.3250359746539409,0.3250359746539409
541,541,-0.6890196984888552,-0.7,1,488.0,773.0,1.0,379.0,1,0.309587955901502,0.309587955901502
542,542,0.8134831997526459,0.8,0,380.0,737.0,0.0,323.0,1,0.2105602399710637,0.2105602399710637
543,543,0.12823188778048933,0.1,0,306.0,526.0,0.0,1278.0,1,0.4882205090297974,0.4882205090297974
544,544,0.13489503426990446,0.1,0,369.0,530.0,0.0,441.0,1,0.4434859767524019,0.4434859767524019
545,545,-0.49587266105579997,-0.5,1,336.0,986.0,1.0,408.0,1,0.13390291256841502,0.13390291256841502
546,546,-0.8099823431633757,-0.8,1,315.0,631.0,1.0,294.0,1,0.1162442259443231,0.1162442259443231
547,547,0.10914756826427485,0.1,0,381.0,636.0,0.0,403.0,1,0.4260870936737429,0.4260870936737429
548,548,0.5117295719554547,0.5,0,404.0,912.0,0.0,414.0,1,0.3242733780485386,0.3242733780485386
549,549,0.519125319046088,0.5,0,457.0,633.0,0.0,310.0,1,0.2502221609837685,0.2502221609837685
550,550,-0.8741996860453127,-0.9,1,447.0,920.0,1.0,303.0,1,0.35837795532794114,0.35837795532794114
551,551,-0.12897352198610457,-0.1,1,453.0,569.0,1.0,238.0,1,0.3416909083171558,0.3416909083171558
552,552,0.6536034680369924,0.7,0,454.0,694.0,0.0,232.0,1,0.1693736883529568,0.1693736883529568
553,553,0.5255927976611805,0.5,0,346.0,997.0,0.0,687.0,1,0.32785838485631663,0.32785838485631663
554,554,-0.4748459637174882,-0.5,1,438.0,690.0,1.0,252.0,1,0.1796083759870742,0.1796083759870742
555,555,-0.9167123345625314,-0.9,1,436.0,547.0,1.0,277.0,1,0.10655344713266207,0.10655344713266207
556,556,0.6619847073944187,0.7,0,414.0,569.0,0.0,277.0,1,0.4680623828893656,0.4680623828893656
557,557,-0.5226172314723665,-0.5,1,277.0,974.0,1.0,239.0,1,0.30864999142413885,0.30864999142413885
558,558,0.37088438516418964,0.4,0,298.0,684.0,0.0,428.0,1,0.10464266768442604,0.10464266768442604
559,559,-0.9307875177523188,-0.9,1,279.0,576.0,1.0,265.0,1,0.18566234837953777,0.18566234837953777
560,560,-0.0673518149810548,-0.1,1,303.0,694.0,1.0,233.0,1,0.08130206047128541,0.08130206047128541
561,561,-0.8755296625238327,-0.9,1,299.0,864.0,1.0,307.0,1,0.07537271217164693,0.07537271217164693
562,562,-0.7853730597494966,-0.8,1,494.0,507.0,1.0,289.0,1,0.21253040988381322,0.21253040988381322
563,563,-0.5779405649436602,-0.6,1,438.0,877.0,1.0,625.0,1,0.3048756269306216,0.3048756269306216
564,564,0.9367870124449851,0.9,0,410.0,991.0,0.0,189.0,1,0.4697383472203296,0.4697383472203296
565,565,0.8376550024389942,0.8,0,397.0,865.0,0.0,188.0,1,0.2373417170050076,0.2373417170050076
566,566,0.6643649166478718,0.7,0,438.0,528.0,0.0,184.0,1,0.276123132054932,0.276123132054932
567,567,0.9825339366361605,1.0,0,373.0,571.0,0.0,216.0,1,0.2896111102471906,0.2896111102471906
568,568,-0.8077322177972659,-0.8,1,425.0,728.0,1.0,297.0,1,0.04738390318008173,0.04738390318008173
569,569,0.514821902540564,0.5,0,279.0,546.0,0.0,555.0,1,0.2825431189287155,0.2825431189287155
570,570,0.35118920554140876,0.4,0,440.0,603.0,0.0,437.0,1,0.42521033240219497,0.42521033240219497
571,571,0.28245825253096757,0.3,0,482.0,805.0,0.0,1073.0,1,0.3684010441300327,0.3684010441300327
572,572,-0.01653259913514238,-0.0,1,452.0,599.0,0.0,1089.0,0,0.32853343778888794,0.32853343778888794
573,573,-0.8085577051485848,-0.8,1,431.0,727.0,1.0,262.0,1,0.4004933030660341,0.4004933030660341
574,574,0.5590833060528402,0.6,0,431.0,890.0,0.0,189.0,1,0.29620973925460986,0.29620973925460986
575,575,0.6363423901140619,0.6,0,459.0,515.0,0.0,196.0,1,0.008397807323889395,0.008397807323889395
576,576,0.7860861202224567,0.8,0,384.0,634.0,0.0,282.0,1,0.17148143865350013,0.17148143865350013
577,577,0.49786257353270136,0.5,0,286.0,681.0,0.0,713.0,1,0.29919371704753644,0.29919371704753644
578,578,0.842372947012272,0.8,0,305.0,944.0,0.0,341.0,1,0.1575560200059663,0.1575560200059663
579,579,-0.05526865977368489,-0.1,1,415.0,584.0,1.0,1091.0,1,0.35092788577196116,0.35092788577196116
580,580,0.11708901578342679,0.1,0,438.0,720.0,0.0,502.0,1,0.3993338689084297,0.3993338689084297
581,581,-0.9558757352989018,-1.0,1,280.0,746.0,1.0,214.0,1,0.3642638110861461,0.3642638110861461
582,582,0.14189626332965322,0.1,0,465.0,867.0,0.0,1758.0,1,0.3906268243957559,0.3906268243957559
583,583,0.7055968280881599,0.7,0,359.0,594.0,0.0,247.0,1,0.2713619319190039,0.2713619319190039
584,584,-0.35239815809221864,-0.4,1,389.0,964.0,1.0,367.0,1,0.3897208777579228,0.3897208777579228
585,585,-0.09398229069091713,-0.1,1,420.0,896.0,1.0,1494.0,1,0.0676027335931691,0.0676027335931691
586,586,-0.8573170719292802,-0.9,1,413.0,748.0,1.0,289.0,1,0.3385845610559285,0.3385845610559285
587,587,-0.7759930127459498,-0.8,1,375.0,832.0,1.0,243.0,1,0.16811899570353817,0.16811899570353817
588,588,0.33066835155957963,0.3,0,478.0,975.0,0.0,557.0,1,0.2611968032444866,0.2611968032444866
589,589,0.1646435929921377,0.2,0,420.0,648.0,0.0,322.0,1,0.2712612216447632,0.2712612216447632
590,590,-0.8429848086216036,-0.8,1,419.0,964.0,1.0,307.0,1,0.23514907476445857,0.23514907476445857
591,591,-0.07192760329380898,-0.1,1,348.0,595.0,0.0,317.0,0,0.3328995041770589,0.3328995041770589
592,592,-0.5599376521109152,-0.6,1,390.0,691.0,1.0,299.0,1,0.41574107275733996,0.41574107275733996
593,593,-0.1825401789702228,-0.2,1,425.0,709.0,1.0,796.0,1,0.021749732537592936,0.021749732537592936
594,594,-0.48723633582024073,-0.5,1,323.0,664.0,1.0,293.0,1,0.2581104638865855,0.2581104638865855
595,595,0.22474499959609218,0.2,0,265.0,579.0,0.0,426.0,1,0.29611796547920965,0.29611796547920965
596,596,0.1514259815238308,0.2,0,453.0,510.0,0.0,957.0,1,0.061389631165277125,0.061389631165277125
597,597,-0.9429769451725063,-0.9,1,357.0,553.0,1.0,170.0,1,0.41285395694548455,0.41285395694548455
598,598,-0.3125868737324542,-0.3,1,439.0,789.0,1.0,382.0,1,0.40144584174399944,0.40144584174399944
599,599,0.8483510442595121,0.8,0,262.0,991.0,0.0,347.0,1,0.24133076055237596,0.24133076055237596
600,600,0.6064892358398066,0.6,0,305.0,682.0,0.0,463.0,1,0.3125862061533802,0.3125862061533802
601,601,0.4575144879014976,0.5,0,450.0,770.0,0.0,420.0,1,0.09921654513299222,0.09921654513299222
602,602,-0.26449280166001166,-0.3,1,343.0,783.0,1.0,324.0,1,0.3470033398446793,0.3470033398446793
603,603,-0.2546591183894875,-0.3,1,498.0,824.0,1.0,228.0,1,0.4380290111624186,0.4380290111624186
604,604,0.998254515129974,1.0,0,425.0,835.0,0.0,390.0,1,0.02080808303858156,0.02080808303858156
605,605,-0.617359460824138,-0.6,1,499.0,518.0,1.0,483.0,1,0.38917347140888553,0.38917347140888553
606,606,-0.045456962140224544,-0.0,1,441.0,674.0,0.0,415.0,0,0.45334421086526905,0.45334421086526905
607,607,0.8762727232647443,0.9,0,270.0,506.0,0.0,274.0,1,0.24316284761143353,0.24316284761143353
608,608,0.8330243468645753,0.8,0,440.0,873.0,0.0,247.0,1,0.44795406135335786,0.44795406135335786
609,609,0.1376378439668191,0.1,0,327.0,661.0,1.0,832.0,0,0.36719004014825857,0.36719004014825857
610,610,-0.5017657505786697,-0.5,1,390.0,960.0,1.0,320.0,1,0.3586265071255866,0.3586265071255866
611,611,0.10151072476976708,0.1,0,343.0,690.0,0.0,547.0,1,0.07187338388581849,0.07187338388581849
612,612,0.8848070458790982,0.9,0,318.0,739.0,0.0,263.0,1,0.4542968333394018,0.4542968333394018
613,613,0.5312285913059365,0.5,0,467.0,512.0,0.0,251.0,1,0.37786158216709437,0.37786158216709437
614,614,0.06552395552207879,0.1,0,382.0,751.0,0.0,1277.0,1,0.0047204632019954285,0.0047204632019954285
615,615,0.5138817837455512,0.5,0,293.0,707.0,0.0,230.0,1,0.49719940443731936,0.49719940443731936
616,616,-0.4467690151144308,-0.4,1,410.0,678.0,1.0,482.0,1,0.3819670457457046,0.3819670457457046
617,617,-0.5033912783175936,-0.5,1,345.0,581.0,1.0,364.0,1,0.15095781949680942,0.15095781949680942
618,618,-0.7168497362069042,-0.7,1,427.0,847.0,1.0,266.0,1,0.10165713273956895,0.10165713273956895
619,619,-0.6531436449870911,-0.7,1,442.0,863.0,1.0,545.0,1,0.06479790510403477,0.06479790510403477
620,620,-0.7774433678158625,-0.8,1,419.0,632.0,1.0,379.0,1,0.1223107729616495,0.1223107729616495
621,621,0.8245831730645792,0.8,0,457.0,817.0,0.0,356.0,1,0.31219533906032665,0.31219533906032665
622,622,0.14080334479523748,0.1,0,466.0,572.0,0.0,2282.0,1,0.3408360698962162,0.3408360698962162
623,623,0.8962070363422912,0.9,0,474.0,683.0,0.0,203.0,1,0.0981969565362516,0.0981969565362516
624,624,0.10017912119023831,0.1,0,495.0,913.0,1.0,412.0,0,0.4716257231920589,0.4716257231920589
625,625,0.9425885506656668,0.9,0,309.0,500.0,0.0,211.0,1,0.3715644405561981,0.3715644405561981
626,626,-0.5588373226971282,-0.6,1,433.0,924.0,1.0,453.0,1,0.22374758899356673,0.22374758899356673
627,627,0.7566519571533705,0.8,0,389.0,701.0,0.0,290.0,1,0.013785901616754526,0.013785901616754526
628,628,0.8055355543979397,0.8,0,259.0,923.0,0.0,298.0,1,0.05129274184319882,0.05129274184319882
629,629,-0.354470151937067,-0.4,1,404.0,808.0,1.0,248.0,1,0.1892167586319895,0.1892167586319895
630,630,0.8952243403361677,0.9,0,442.0,586.0,0.0,342.0,1,0.14143865033177844,0.14143865033177844
631,631,0.7486071403818328,0.7,0,484.0,886.0,0.0,290.0,1,0.05013141384089903,0.05013141384089903
632,632,-0.6488292280342052,-0.6,1,443.0,839.0,1.0,228.0,1,0.3182637215483014,0.3182637215483014
633,633,0.6404414046867097,0.6,0,286.0,587.0,0.0,407.0,1,0.41578869174435445,0.41578869174435445
634,634,-0.04801748808813189,-0.0,1,485.0,976.0,0.0,579.0,0,0.1401121841906109,0.1401121841906109
635,635,-0.609685486408915,-0.6,1,316.0,768.0,1.0,396.0,1,0.20534467175938137,0.20534467175938137
636,636,0.47840891800801244,0.5,0,252.0,964.0,0.0,744.0,1,0.29558393903572905,0.29558393903572905
637,637,0.49851044229272024,0.5,0,326.0,559.0,0.0,545.0,1,0.327102800852268,0.327102800852268
638,638,-0.9846482512696668,-1.0,1,301.0,728.0,1.0,171.0,1,0.40106767893567885,0.40106767893567885
639,639,0.7939338976302708,0.8,0,407.0,577.0,0.0,236.0,1,0.08886760242133351,0.08886760242133351
640,640,-0.2949592825487193,-0.3,1,304.0,797.0,1.0,329.0,1,0.41405703395415294,0.41405703395415294
641,641,-0.9449202578043314,-0.9,1,250.0,812.0,1.0,218.0,1,0.15721670340899768,0.15721670340899768
642,642,-0.27877596733285315,-0.3,1,371.0,798.0,1.0,451.0,1,0.13686046152176395,0.13686046152176395
643,643,-0.02794343281162326,-0.0,1,483.0,673.0,1.0,1344.0,1,0.3674754096419032,0.3674754096419032
644,644,-0.853627103898555,-0.9,1,269.0,841.0,1.0,240.0,1,0.44728961319096033,0.44728961319096033
645,645,0.9978910622013435,1.0,0,451.0,604.0,0.0,315.0,1,0.28261062585611096,0.28261062585611096
646,646,0.8467563882405167,0.8,0,464.0,753.0,0.0,253.0,1,0.33095418035888885,0.33095418035888885
647,647,-0.9342147286917089,-0.9,1,373.0,925.0,1.0,432.0,1,0.21406945609150957,0.21406945609150957
648,648,-0.9733556343788929,-1.0,1,439.0,749.0,1.0,222.0,1,0.08469855567040985,0.08469855567040985
649,649,-0.9798464894511294,-1.0,1,284.0,891.0,1.0,305.0,1,0.32778566566876555,0.32778566566876555
650,650,-0.9026799228818061,-0.9,1,280.0,987.0,1.0,343.0,1,0.27796191796356906,0.27796191796356906
651,651,-0.36336922231836444,-0.4,1,456.0,723.0,1.0,421.0,1,0.3299507059578512,0.3299507059578512
652,652,0.39120710194618735,0.4,0,251.0,507.0,0.0,492.0,1,0.31627402448938247,0.31627402448938247
653,653,-0.022720448330117993,-0.0,1,308.0,769.0,0.0,853.0,0,0.31145083873159957,0.31145083873159957
654,654,0.9528257191350264,1.0,0,420.0,556.0,0.0,254.0,1,0.3849949909407895,0.3849949909407895
655,655,-0.8082299631231942,-0.8,1,442.0,657.0,1.0,471.0,1,0.31373076269905353,0.31373076269905353
656,656,0.3728384799588962,0.4,0,458.0,767.0,0.0,825.0,1,0.2177643404701599,0.2177643404701599
657,657,-0.366195965841114,-0.4,1,433.0,583.0,1.0,584.0,1,0.0037714930590952433,0.0037714930590952433
658,658,0.35310806102117676,0.4,0,425.0,754.0,0.0,531.0,1,0.10179633476502237,0.10179633476502237
659,659,-0.34467935698865926,-0.3,1,473.0,503.0,1.0,424.0,1,0.31978033063751543,0.31978033063751543
660,660,0.5043674587310825,0.5,0,456.0,993.0,0.0,641.0,1,0.22839969868223026,0.22839969868223026
661,661,-0.3569686534274279,-0.4,1,355.0,870.0,1.0,495.0,1,0.32298832503596026,0.32298832503596026
662,662,-0.5775492350305094,-0.6,1,445.0,509.0,1.0,566.0,1,0.23619170265511003,0.23619170265511003
663,663,0.6098230855326883,0.6,0,289.0,904.0,0.0,307.0,1,0.16035642850646037,0.16035642850646037
664,664,-0.7946494398447663,-0.8,1,268.0,575.0,1.0,207.0,1,0.42501255494125706,0.42501255494125706
665,665,0.18961651081535424,0.2,0,360.0,866.0,0.0,554.0,1,0.2895713429734921,0.2895713429734921
666,666,0.3198451716414945,0.3,0,276.0,823.0,0.0,541.0,1,0.1510612289532744,0.1510612289532744
667,667,-0.7082012915055442,-0.7,1,388.0,666.0,1.0,236.0,1,0.34864982885945933,0.34864982885945933
668,668,-0.744257223483695,-0.7,1,425.0,661.0,1.0,274.0,1,0.42232353828862257,0.42232353828862257
669,669,0.8532045875626804,0.9,0,433.0,977.0,0.0,200.0,1,0.08543607886471394,0.08543607886471394
670,670,0.4664413843430768,0.5,0,370.0,819.0,0.0,301.0,1,0.39191988806774225,0.39191988806774225
671,671,-0.6294966081000763,-0.6,1,469.0,895.0,1.0,356.0,1,0.40660993984525956,0.40660993984525956
672,672,-0.20970361849483732,-0.2,1,307.0,530.0,1.0,1603.0,1,0.10175629071808528,0.10175629071808528
673,673,-0.5682632551531295,-0.6,1,438.0,554.0,1.0,248.0,1,0.05383482933163125,0.05383482933163125
674,674,-0.20016835645794173,-0.2,1,426.0,731.0,1.0,453.0,1,0.31110466283417004,0.31110466283417004
675,675,-0.7131116879388126,-0.7,1,424.0,630.0,1.0,256.0,1,0.4361243061933585,0.4361243061933585
676,676,0.13338270941535013,0.1,0,259.0,777.0,0.0,324.0,1,0.15537674698146015,0.15537674698146015
677,677,-0.7711278446657701,-0.8,1,484.0,638.0,1.0,358.0,1,0.1774915904902114,0.1774915904902114
678,678,-0.796018586953734,-0.8,1,493.0,765.0,1.0,232.0,1,0.2639580478118099,0.2639580478118099
679,679,-0.933599725100674,-0.9,1,468.0,673.0,1.0,209.0,1,0.2475460645314561,0.2475460645314561
680,680,-0.7139301298583829,-0.7,1,433.0,816.0,1.0,241.0,1,0.14367286275693258,0.14367286275693258
681,681,-0.5600072258342201,-0.6,1,409.0,528.0,1.0,363.0,1,0.22529286854767955,0.22529286854767955
682,682,-0.21169124792203053,-0.2,1,375.0,825.0,1.0,680.0,1,0.21625894285777653,0.21625894285777653
683,683,-0.3658148662076983,-0.4,1,372.0,537.0,1.0,711.0,1,0.15029837104745536,0.15029837104745536
684,684,0.18907255937294698,0.2,0,490.0,704.0,0.0,726.0,1,0.40007959252442565,0.40007959252442565
685,685,-0.3860802758395385,-0.4,1,437.0,840.0,1.0,493.0,1,0.10514787823948568,0.10514787823948568
686,686,-0.04485762042682784,-0.0,1,466.0,507.0,1.0,357.0,1,0.28767399513656056,0.28767399513656056
687,687,0.4358021129944465,0.4,0,285.0,881.0,0.0,374.0,1,0.2382615482205454,0.2382615482205454
688,688,-0.3651043503539735,-0.4,1,319.0,883.0,1.0,208.0,1,0.4384165745008879,0.4384165745008879
689,689,-0.8367355098351184,-0.8,1,468.0,613.0,1.0,239.0,1,0.3025467852112356,0.3025467852112356
690,690,-0.03571458533573213,-0.0,1,301.0,735.0,0.0,1614.0,0,0.1879095933609714,0.1879095933609714
691,691,-0.6469935090066772,-0.6,1,375.0,887.0,1.0,448.0,1,0.346791568667375,0.346791568667375
692,692,-0.041968197638569515,-0.0,1,328.0,760.0,0.0,1232.0,0,0.08097697652005337,0.08097697652005337
693,693,0.5965134502061855,0.6,0,324.0,756.0,0.0,410.0,1,0.05937624200290759,0.05937624200290759
694,694,-0.9595826830118817,-1.0,1,491.0,849.0,1.0,310.0,1,0.08641299930820323,0.08641299930820323
695,695,-0.7698356400564823,-0.8,1,300.0,968.0,1.0,282.0,1,0.48132406714759196,0.48132406714759196
696,696,0.6741703861518722,0.7,0,250.0,768.0,0.0,402.0,1,0.2554444171140399,0.2554444171140399
697,697,-0.9520749264441744,-1.0,1,396.0,604.0,1.0,210.0,1,0.09248423926386634,0.09248423926386634
698,698,0.5404415702423957,0.5,0,426.0,640.0,0.0,524.0,1,0.1620597131930016,0.1620597131930016
699,699,0.6730059328995279,0.7,0,403.0,539.0,0.0,258.0,1,0.03851331595068064,0.03851331595068064
700,700,-0.49770456849219036,-0.5,1,280.0,674.0,1.0,956.0,1,0.2878617390367088,0.2878617390367088
701,701,-0.31771486635410895,-0.3,1,310.0,809.0,1.0,541.0,1,0.2636805870513462,0.2636805870513462
702,702,0.38269481787438964,0.4,0,471.0,667.0,0.0,502.0,1,0.09563764995747759,0.09563764995747759
703,703,-0.24613534953816196,-0.2,1,447.0,654.0,1.0,999.0,1,0.24059474701809302,0.24059474701809302
704,704,0.20483440107412854,0.2,0,383.0,893.0,0.0,554.0,1,0.18599895067737987,0.18599895067737987
705,705,0.09487197194376007,0.1,0,430.0,871.0,0.0,659.0,1,0.37255019581671855,0.37255019581671855
706,706,0.21258727150580015,0.2,0,492.0,555.0,0.0,553.0,1,0.13536396595427086,0.13536396595427086
707,707,0.7640443177686778,0.8,0,272.0,956.0,0.0,352.0,1,0.48338147013533556,0.48338147013533556
708,708,-0.9490696010400776,-0.9,1,370.0,571.0,1.0,129.0,1,0.35830346155843995,0.35830346155843995
709,709,0.5206924099110215,0.5,0,256.0,703.0,0.0,271.0,1,0.38103985439116017,0.38103985439116017
710,710,0.2545074144817028,0.3,0,315.0,915.0,0.0,270.0,1,0.20037538354575668,0.20037538354575668
711,711,-0.9225419720884183,-0.9,1,408.0,704.0,1.0,218.0,1,0.11867081316114403,0.11867081316114403
712,712,0.4195013832320509,0.4,0,451.0,805.0,0.0,484.0,1,0.10433919422186982,0.10433919422186982
713,713,-0.9466859986758969,-0.9,1,379.0,552.0,1.0,479.0,1,0.3557193697273716,0.3557193697273716
714,714,-0.533524916195453,-0.5,1,289.0,555.0,1.0,386.0,1,0.02675359294651125,0.02675359294651125
715,715,0.8373121930560739,0.8,0,362.0,720.0,0.0,228.0,1,0.08364471109454957,0.08364471109454957
716,716,0.6816595683276532,0.7,0,434.0,901.0,0.0,455.0,1,0.4843681641945614,0.4843681641945614
717,717,0.687490275344329,0.7,0,390.0,576.0,0.0,354.0,1,0.36688870965215187,0.36688870965215187
718,718,-0.6084573350169322,-0.6,1,259.0,611.0,1.0,260.0,1,0.05761555019051706,0.05761555019051706
719,719,-0.2394680034329062,-0.2,1,478.0,602.0,1.0,650.0,1,0.23883253693416256,0.23883253693416256
720,720,-0.0392174330705406,-0.0,1,406.0,945.0,1.0,459.0,1,0.11997277465544642,0.11997277465544642
721,721,-0.1029519028889676,-0.1,1,335.0,832.0,1.0,663.0,1,0.09389626187589833,0.09389626187589833
722,722,0.7336197153240454,0.7,0,314.0,973.0,0.0,363.0,1,0.485294142681307,0.485294142681307
723,723,-0.433874460034275,-0.4,1,405.0,704.0,1.0,221.0,1,0.3008262341947076,0.3008262341947076
724,724,0.5213232855259224,0.5,0,322.0,832.0,0.0,366.0,1,0.2708498415790721,0.2708498415790721
725,725,-0.7996690103278055,-0.8,1,315.0,563.0,1.0,372.0,1,0.1257606366549398,0.1257606366549398
726,726,-0.13759808114535543,-0.1,1,293.0,957.0,1.0,580.0,1,0.18302188824638999,0.18302188824638999
727,727,0.8873682773427374,0.9,0,364.0,580.0,0.0,306.0,1,0.31634728597316353,0.31634728597316353
728,728,-0.17781717123526675,-0.2,1,304.0,569.0,1.0,747.0,1,0.39287130407665566,0.39287130407665566
729,729,-0.8986749516257502,-0.9,1,294.0,545.0,1.0,321.0,1,0.12937363620214148,0.12937363620214148
730,730,0.8201839569255647,0.8,0,368.0,989.0,0.0,343.0,1,0.021893528902409143,0.021893528902409143
731,731,0.6351745958261548,0.6,0,251.0,748.0,0.0,221.0,1,0.06505646671168508,0.06505646671168508
732,732,0.1496398735891944,0.1,0,363.0,859.0,0.0,418.0,1,0.27295234927660256,0.27295234927660256
733,733,-0.30885613789176825,-0.3,1,476.0,894.0,1.0,550.0,1,0.0005124685280529784,0.0005124685280529784
734,734,-0.6166266342036053,-0.6,1,268.0,566.0,1.0,336.0,1,0.007370384227963933,0.007370384227963933
735,735,0.15638379057137541,0.2,0,285.0,931.0,0.0,754.0,1,0.23788666815995907,0.23788666815995907
736,736,-0.8536626662310671,-0.9,1,284.0,535.0,1.0,311.0,1,0.4031517841195058,0.4031517841195058
737,737,-0.24572663302968456,-0.2,1,376.0,769.0,1.0,575.0,1,0.11732521846338778,0.11732521846338778
738,738,0.2906015810651761,0.3,0,312.0,822.0,0.0,386.0,1,0.25721514177709515,0.25721514177709515
739,739,-0.891009166772468,-0.9,1,328.0,575.0,1.0,427.0,1,0.3156389231224163,0.3156389231224163
740,740,-0.21792433001078382,-0.2,1,366.0,676.0,1.0,1158.0,1,0.4850857837472627,0.4850857837472627
741,741,0.6702260816259713,0.7,0,295.0,650.0,0.0,435.0,1,0.037779626965457835,0.037779626965457835
742,742,0.7401180510125758,0.7,0,376.0,993.0,0.0,231.0,1,0.44351021767662435,0.44351021767662435
743,743,0.7224930044233426,0.7,0,459.0,517.0,0.0,274.0,1,0.09743817403902327,0.09743817403902327
744,744,-0.22783535704707103,-0.2,1,383.0,671.0,1.0,776.0,1,0.11668776154302068,0.11668776154302068
745,745,-0.9543337243590904,-1.0,1,374.0,637.0,1.0,199.0,1,0.3504470068472259,0.3504470068472259
746,746,-0.508732053162634,-0.5,1,437.0,857.0,1.0,596.0,1,0.2694487280385421,0.2694487280385421
747,747,-0.5692394559892506,-0.6,1,488.0,747.0,1.0,295.0,1,0.09869738552111001,0.09869738552111001
748,748,0.2858787519523469,0.3,0,300.0,527.0,0.0,493.0,1,0.45812689331196793,0.45812689331196793
749,749,0.7546246138754067,0.8,0,429.0,780.0,0.0,321.0,1,0.17456290046847178,0.17456290046847178
750,750,0.4132482461341531,0.4,0,313.0,598.0,0.0,219.0,1,0.23081403901898367,0.23081403901898367
751,751,-0.559242140300096,-0.6,1,486.0,775.0,1.0,339.0,1,0.21172986118504356,0.21172986118504356
752,752,-0.9084950404238481,-0.9,1,285.0,833.0,1.0,272.0,1,0.37359159984009915,0.37359159984009915
753,753,0.7547829471903669,0.8,0,337.0,503.0,0.0,240.0,1,0.49807084546076286,0.49807084546076286
754,754,-0.8236218462156359,-0.8,1,361.0,939.0,1.0,110.0,1,0.01828759954920761,0.01828759954920761
755,755,-0.07939298974934528,-0.1,1,444.0,851.0,0.0,1115.0,0,0.3056413792089825,0.3056413792089825
756,756,0.5814619672161878,0.6,0,384.0,854.0,0.0,272.0,1,0.03329478760895488,0.03329478760895488
757,757,0.9582482214401056,1.0,0,392.0,545.0,0.0,193.0,1,0.20018592342028102,0.20018592342028102
758,758,0.11890715657944617,0.1,0,255.0,714.0,1.0,671.0,0,0.13622765457456998,0.13622765457456998
759,759,0.9646391647069157,1.0,0,480.0,790.0,0.0,320.0,1,0.28377984789031474,0.28377984789031474
760,760,0.13780313094130103,0.1,0,440.0,772.0,0.0,308.0,1,0.45243762092198836,0.45243762092198836
761,761,-0.788302223873137,-0.8,1,288.0,570.0,1.0,242.0,1,0.09574916770072217,0.09574916770072217
762,762,-0.7867517145150209,-0.8,1,446.0,890.0,1.0,364.0,1,0.030238657972057437,0.030238657972057437
763,763,0.9794117794306811,1.0,0,382.0,843.0,0.0,295.0,1,0.26098981102048185,0.26098981102048185
764,764,0.6181239220556103,0.6,0,393.0,624.0,0.0,283.0,1,0.04806814245021501,0.04806814245021501
765,765,0.31462479138662824,0.3,0,408.0,575.0,0.0,317.0,1,0.1510664294814219,0.1510664294814219
766,766,-0.2760757383570931,-0.3,1,373.0,592.0,1.0,535.0,1,0.176853454193174,0.176853454193174
767,767,0.90403230067242,0.9,0,472.0,711.0,0.0,257.0,1,0.21470666295737906,0.21470666295737906
768,768,-0.43477757802628014,-0.4,1,305.0,613.0,1.0,292.0,1,0.45449884310153715,0.45449884310153715
769,769,0.0678548946153954,0.1,0,475.0,607.0,0.0,1128.0,1,0.2045909246565803,0.2045909246565803
770,770,-0.483942207187394,-0.5,1,280.0,688.0,1.0,502.0,1,0.0840095070681589,0.0840095070681589
771,771,-0.3617384539530051,-0.4,1,399.0,821.0,1.0,520.0,1,0.07663203954158027,0.07663203954158027
772,772,0.6420379392184778,0.6,0,268.0,647.0,0.0,455.0,1,0.09551865030977236,0.09551865030977236
773,773,-0.4536232653443466,-0.5,1,316.0,945.0,1.0,349.0,1,0.47821368414222093,0.47821368414222093
774,774,-0.005573296357398894,-0.0,1,376.0,793.0,0.0,841.0,0,0.39244293368309985,0.39244293368309985
775,775,0.9477140845995558,0.9,0,479.0,666.0,0.0,305.0,1,0.24067074725106535,0.24067074725106535
776,776,0.12740657236522845,0.1,0,295.0,897.0,0.0,988.0,1,0.38418122238192326,0.38418122238192326
777,777,-0.27364688692344386,-0.3,1,342.0,567.0,1.0,1271.0,1,0.464539518017284,0.464539518017284
778,778,0.491574581129675,0.5,0,311.0,850.0,0.0,359.0,1,0.07724978207022076,0.07724978207022076
779,779,0.07861751435083408,0.1,0,405.0,849.0,0.0,396.0,1,0.03694575992650351,0.03694575992650351
780,780,-0.24868891947509097,-0.2,1,453.0,923.0,1.0,724.0,1,0.3815825506532974,0.3815825506532974
781,781,0.7735693912285857,0.8,0,298.0,900.0,0.0,242.0,1,0.2488290305262772,0.2488290305262772
782,782,-0.016425889266142635,-0.0,1,476.0,901.0,0.0,873.0,0,0.05871140005464559,0.05871140005464559
783,783,0.25219212406101343,0.3,0,391.0,988.0,0.0,631.0,1,0.046064465339966165,0.046064465339966165
784,784,-0.7259445585173661,-0.7,1,462.0,584.0,1.0,414.0,1,0.44381334418405505,0.44381334418405505
785,785,0.9692610854129877,1.0,0,320.0,832.0,0.0,238.0,1,0.24663828605188454,0.24663828605188454
786,786,0.2940645836306186,0.3,0,406.0,699.0,0.0,405.0,1,0.2735093825386276,0.2735093825386276
787,787,0.09977269992887927,0.1,0,444.0,689.0,0.0,1667.0,1,0.33135558180490793,0.33135558180490793
788,788,-0.5798312626722819,-0.6,1,292.0,771.0,1.0,217.0,1,0.3567458034069,0.3567458034069
789,789,-0.548326129188422,-0.5,1,334.0,563.0,1.0,253.0,1,0.36505115292313334,0.36505115292313334
790,790,0.14499211989749483,0.1,0,312.0,904.0,0.0,484.0,1,0.46557601092748674,0.46557601092748674
791,791,-0.7624673313153651,-0.8,1,440.0,925.0,1.0,225.0,1,0.08967248532906386,0.08967248532906386
792,792,-0.9728562108282679,-1.0,1,319.0,560.0,1.0,221.0,1,0.3947031641624052,0.3947031641624052
793,793,-0.1336596991030783,-0.1,1,351.0,839.0,1.0,770.0,1,0.2242733831035716,0.2242733831035716
794,794,-0.561322816440158,-0.6,1,273.0,851.0,1.0,396.0,1,0.152684368691961,0.152684368691961
795,795,0.9476405988980656,0.9,0,404.0,514.0,0.0,192.0,1,0.49401469337116005,0.49401469337116005
796,796,-0.5055204265539159,-0.5,1,412.0,716.0,1.0,392.0,1,0.16117360033218203,0.16117360033218203
797,797,0.1512708209445961,0.2,0,338.0,630.0,0.0,642.0,1,0.27758099019379223,0.27758099019379223
798,798,-0.6113316049080038,-0.6,1,425.0,666.0,1.0,379.0,1,0.11231837621188762,0.11231837621188762
799,799,0.8768598417687179,0.9,0,348.0,602.0,0.0,310.0,1,0.08788516410684727,0.08788516410684727
800,800,0.32795833775102534,0.3,0,399.0,764.0,0.0,457.0,1,0.41957983987275815,0.41957983987275815
801,801,0.8586315272425058,0.9,0,324.0,609.0,0.0,227.0,1,0.4905332548847386,0.4905332548847386
802,802,0.6391658523598371,0.6,0,393.0,876.0,0.0,251.0,1,0.05499772905740058,0.05499772905740058
803,803,-0.7991921691579129,-0.8,1,323.0,918.0,1.0,259.0,1,0.37280160133628454,0.37280160133628454
804,804,0.22738136381255614,0.2,0,476.0,833.0,0.0,481.0,1,0.3651695693905459,0.3651695693905459
805,805,0.18624156683427628,0.2,0,284.0,695.0,0.0,1041.0,1,0.29766937230560686,0.29766937230560686
806,806,-0.6769799554013269,-0.7,1,333.0,904.0,1.0,333.0,1,0.26466693245046313,0.26466693245046313
807,807,-0.45160741195578735,-0.5,1,370.0,904.0,1.0,686.0,1,0.026765108086116596,0.026765108086116596
808,808,-0.4263248066766461,-0.4,1,422.0,837.0,1.0,541.0,1,0.020948446958556688,0.020948446958556688
809,809,-0.8341481752793509,-0.8,1,454.0,689.0,1.0,217.0,1,0.05058778574806555,0.05058778574806555
810,810,0.8158435331923939,0.8,0,442.0,633.0,0.0,265.0,1,0.4801345365525338,0.4801345365525338
811,811,-0.07699453684663404,-0.1,1,466.0,620.0,1.0,404.0,1,0.04406051721334925,0.04406051721334925
812,812,0.8285522182362124,0.8,0,314.0,664.0,0.0,452.0,1,0.31860776030013344,0.31860776030013344
813,813,-0.14605499484810336,-0.1,1,496.0,768.0,1.0,456.0,1,0.028988233923325224,0.028988233923325224
814,814,0.6860899384635553,0.7,0,378.0,655.0,0.0,417.0,1,0.38961931083722756,0.38961931083722756
815,815,0.07867906781944667,0.1,0,435.0,694.0,1.0,761.0,0,0.48799064136012615,0.48799064136012615
816,816,-0.5688610607359179,-0.6,1,359.0,579.0,1.0,192.0,1,0.34319945049479533,0.34319945049479533
817,817,-0.25220085168965145,-0.3,1,301.0,926.0,1.0,1013.0,1,0.4836870994509173,0.4836870994509173
818,818,0.36132737151510286,0.4,0,478.0,889.0,0.0,853.0,1,0.1774418269627034,0.1774418269627034
819,819,0.44635230528409187,0.4,0,453.0,655.0,0.0,272.0,1,0.49855397099316456,0.49855397099316456
820,820,0.678843948764345,0.7,0,297.0,512.0,0.0,391.0,1,0.4944214311538665,0.4944214311538665
821,821,-0.0538682425863819,-0.1,1,451.0,553.0,0.0,316.0,0,0.2557407939421646,0.2557407939421646
822,822,0.4823418115184346,0.5,0,325.0,915.0,0.0,340.0,1,0.492574334329831,0.492574334329831
823,823,0.4470809049609865,0.4,0,483.0,538.0,0.0,669.0,1,0.01415000749989831,0.01415000749989831
824,824,0.9089751380157562,0.9,0,392.0,951.0,0.0,267.0,1,0.031138611241514402,0.031138611241514402
825,825,0.47863126499743136,0.5,0,463.0,948.0,0.0,389.0,1,0.27729793746849735,0.27729793746849735
826,826,0.5196959196788429,0.5,0,285.0,787.0,0.0,228.0,1,0.39793891665083236,0.39793891665083236
827,827,0.38084216301850127,0.4,0,397.0,666.0,0.0,687.0,1,0.09687232265676704,0.09687232265676704
828,828,0.609846907499874,0.6,0,494.0,721.0,0.0,325.0,1,0.03330108515350527,0.03330108515350527
829,829,-0.3589731962982132,-0.4,1,255.0,507.0,1.0,518.0,1,0.10397241877560492,0.10397241877560492
830,830,0.543776109762097,0.5,0,307.0,673.0,0.0,490.0,1,0.4306030190477732,0.4306030190477732
831,831,-0.06063187253399738,-0.1,1,351.0,628.0,1.0,1071.0,1,0.4323663278119595,0.4323663278119595
832,832,-0.7861106347731954,-0.8,1,311.0,639.0,1.0,310.0,1,0.15370611957036195,0.15370611957036195
833,833,-0.020704080626146038,-0.0,1,435.0,921.0,0.0,1044.0,0,0.2929898513499572,0.2929898513499572
834,834,0.591560371421642,0.6,0,309.0,778.0,0.0,203.0,1,0.06052877340267476,0.06052877340267476
835,835,0.6216039808573024,0.6,0,349.0,976.0,0.0,195.0,1,0.4106020650318689,0.4106020650318689
836,836,0.13198236916755568,0.1,0,461.0,972.0,0.0,327.0,1,0.14711741743333784,0.14711741743333784
837,837,0.6104022003067728,0.6,0,475.0,633.0,0.0,422.0,1,0.15070369164295477,0.15070369164295477
838,838,0.9205773820512173,0.9,0,273.0,890.0,0.0,307.0,1,0.29339340460009283,0.29339340460009283
839,839,0.5374086405052554,0.5,0,289.0,788.0,0.0,1053.0,1,0.25221351727876634,0.25221351727876634
840,840,-0.4075307597595492,-0.4,1,404.0,957.0,1.0,349.0,1,0.3287456291328094,0.3287456291328094
841,841,-0.6406339449394478,-0.6,1,446.0,791.0,1.0,173.0,1,0.4987022546484782,0.4987022546484782
842,842,-0.39023402086546444,-0.4,1,252.0,628.0,1.0,250.0,1,0.4870426585685201,0.4870426585685201
843,843,-0.5850574435488247,-0.6,1,439.0,878.0,1.0,383.0,1,0.30703340545746494,0.30703340545746494
844,844,-0.17161967136923795,-0.2,1,301.0,566.0,0.0,283.0,0,0.4144047108967504,0.4144047108967504
845,845,-0.052045972054613365,-0.1,1,370.0,605.0,1.0,615.0,1,0.02477872157541311,0.02477872157541311
846,846,0.5195738909837899,0.5,0,280.0,545.0,0.0,295.0,1,0.23538053921904833,0.23538053921904833
847,847,0.8649905150143362,0.9,0,416.0,715.0,0.0,219.0,1,0.19135668013676715,0.19135668013676715
848,848,0.6185253024647597,0.6,0,385.0,611.0,0.0,614.0,1,0.3088340850446041,0.3088340850446041
849,849,-0.48854031725319946,-0.5,1,297.0,507.0,1.0,196.0,1,0.2852821479984018,0.2852821479984018
850,850,-0.640571139213072,-0.6,1,462.0,992.0,1.0,536.0,1,0.10348706435562355,0.10348706435562355
851,851,-0.47185565610527114,-0.5,1,414.0,785.0,1.0,301.0,1,0.451938869981889,0.451938869981889
852,852,-0.8862750898646099,-0.9,1,484.0,947.0,1.0,239.0,1,0.16175154050842422,0.16175154050842422
853,853,0.44114753900425696,0.4,0,495.0,592.0,0.0,463.0,1,0.24267434966772455,0.24267434966772455
854,854,0.8005377353921599,0.8,0,417.0,775.0,0.0,218.0,1,0.4136320421062292,0.4136320421062292
855,855,0.27547982490662903,0.3,0,256.0,958.0,0.0,996.0,1,0.32902418531830285,0.32902418531830285
856,856,-0.9184105686149233,-0.9,1,352.0,570.0,1.0,238.0,1,0.23571770550026422,0.23571770550026422
857,857,0.4388135316607835,0.4,0,326.0,945.0,0.0,469.0,1,0.28793824073904234,0.28793824073904234
858,858,-0.45170974243443696,-0.5,1,293.0,670.0,1.0,327.0,1,0.4156009367248915,0.4156009367248915
859,859,-0.25812600881033143,-0.3,1,449.0,540.0,1.0,391.0,1,0.4700176493762182,0.4700176493762182
860,860,-0.012390011729777717,-0.0,1,352.0,990.0,0.0,638.0,0,0.32313701564613667,0.32313701564613667
861,861,0.1698183983004362,0.2,0,467.0,867.0,0.0,386.0,1,0.4900217651558025,0.4900217651558025
862,862,0.19618723184815234,0.2,0,330.0,945.0,0.0,1275.0,1,0.0572367749928272,0.0572367749928272
863,863,0.8941278053788815,0.9,0,461.0,577.0,0.0,272.0,1,0.042739711489214016,0.042739711489214016
864,864,0.22620908214752822,0.2,0,445.0,702.0,0.0,593.0,1,0.06303322630968428,0.06303322630968428
865,865,-0.7053345366533323,-0.7,1,450.0,888.0,1.0,282.0,1,0.31818344353719624,0.31818344353719624
866,866,-0.2516464969500871,-0.3,1,369.0,638.0,1.0,473.0,1,0.4575656781851191,0.4575656781851191
867,867,0.9392845725429675,0.9,0,478.0,609.0,0.0,223.0,1,0.03330825084387978,0.03330825084387978
868,868,-0.14579355672246086,-0.1,1,443.0,753.0,1.0,524.0,1,0.19445240542492187,0.19445240542492187
869,869,0.04926219234968654,0.0,0,272.0,959.0,0.0,2919.0,1,0.20588023081620166,0.20588023081620166
870,870,0.14178213328177436,0.1,0,461.0,922.0,1.0,287.0,0,0.22924931018827888,0.22924931018827888
871,871,0.6424040622681206,0.6,0,382.0,660.0,0.0,458.0,1,0.021172389266670144,0.021172389266670144
872,872,0.45325852317328486,0.5,0,427.0,983.0,0.0,450.0,1,0.0632055064235359,0.0632055064235359
873,873,0.7867550670348042,0.8,0,254.0,902.0,0.0,314.0,1,0.053867644045103136,0.053867644045103136
874,874,-0.5015265942095304,-0.5,1,487.0,985.0,1.0,238.0,1,0.35767253508163127,0.35767253508163127
875,875,-0.5146821215205151,-0.5,1,267.0,565.0,1.0,428.0,1,0.10156646826065402,0.10156646826065402
876,876,0.07483700629591561,0.1,0,408.0,547.0,0.0,1265.0,1,0.09379688568491445,0.09379688568491445
877,877,0.05550743860150309,0.1,0,331.0,747.0,0.0,1152.0,1,0.48405204893877,0.48405204893877
878,878,0.14731659085052784,0.1,0,493.0,822.0,0.0,475.0,1,0.22367574295072173,0.22367574295072173
879,879,-0.1213025255478346,-0.1,1,273.0,603.0,1.0,704.0,1,0.2200785914824928,0.2200785914824928
880,880,0.9758724412555213,1.0,0,364.0,683.0,0.0,203.0,1,0.1637727866711176,0.1637727866711176
881,881,-0.7604037371852157,-0.8,1,305.0,954.0,1.0,311.0,1,0.25192191696710736,0.25192191696710736
882,882,-0.9223554710107402,-0.9,1,330.0,944.0,1.0,356.0,1,0.29878423641704516,0.29878423641704516
883,883,0.059550671171224145,0.1,0,426.0,928.0,0.0,546.0,1,0.1945039693544543,0.1945039693544543
884,884,0.9267592566532419,0.9,0,356.0,553.0,0.0,241.0,1,0.1308474698337343,0.1308474698337343
885,885,-0.11948809854033104,-0.1,1,372.0,543.0,1.0,1595.0,1,0.3908254738768619,0.3908254738768619
886,886,0.6087919090436029,0.6,0,290.0,649.0,0.0,371.0,1,0.0065012463060522,0.0065012463060522
887,887,-0.7761529607188073,-0.8,1,346.0,671.0,1.0,233.0,1,0.16517820230815455,0.16517820230815455
888,888,-0.9497890062449528,-0.9,1,467.0,780.0,1.0,193.0,1,0.004135986110870349,0.004135986110870349
889,889,0.38140745464663195,0.4,0,394.0,514.0,0.0,392.0,1,0.458391964763286,0.458391964763286
890,890,-0.04925781612577218,-0.0,1,291.0,989.0,0.0,440.0,0,0.47110625949293616,0.47110625949293616
891,891,-0.6209576149068976,-0.6,1,476.0,965.0,1.0,199.0,1,0.46317406384640586,0.46317406384640586
892,892,-0.43191155230549905,-0.4,1,306.0,517.0,1.0,197.0,1,0.16138601155625215,0.16138601155625215
893,893,0.4319138095816111,0.4,0,465.0,806.0,0.0,409.0,1,0.003094460831023993,0.003094460831023993
894,894,-0.9919516803838035,-1.0,1,372.0,920.0,1.0,158.0,1,0.18114604097853865,0.18114604097853865
895,895,0.3366161480126151,0.3,0,420.0,879.0,0.0,321.0,1,0.3101672030703442,0.3101672030703442
896,896,-0.2928516819852942,-0.3,1,292.0,570.0,1.0,338.0,1,0.22869952556243295,0.22869952556243295
897,897,0.005355100821186065,0.0,0,258.0,870.0,0.0,1472.0,1,0.4968711521561008,0.4968711521561008
898,898,0.9836549345991104,1.0,0,311.0,566.0,0.0,233.0,1,0.06590036543039263,0.06590036543039263
899,899,-0.007642501814943081,-0.0,1,267.0,596.0,0.0,287.0,0,0.2406684288386981,0.2406684288386981
900,900,-0.8670095280759218,-0.9,1,486.0,565.0,1.0,259.0,1,0.2637944943381343,0.2637944943381343
901,901,-0.6760185725726922,-0.7,1,464.0,750.0,1.0,306.0,1,0.016794282208170974,0.016794282208170974
902,902,-0.6254550927484968,-0.6,1,289.0,855.0,1.0,476.0,1,0.4699964609133904,0.4699964609133904
903,903,0.114575703591,0.1,0,323.0,640.0,0.0,937.0,1,0.3704721639406537,0.3704721639406537
904,904,-0.9709534042834189,-1.0,1,444.0,860.0,1.0,196.0,1,0.4683110016531648,0.4683110016531648
905,905,-0.11296679571847834,-0.1,1,443.0,720.0,1.0,407.0,1,0.4086352149352157,0.4086352149352157
906,906,-0.4191571625894066,-0.4,1,305.0,584.0,1.0,271.0,1,0.4004441518103069,0.4004441518103069
907,907,0.3219293610889473,0.3,0,310.0,953.0,0.0,327.0,1,0.375011137076694,0.375011137076694
908,908,-0.12111757250732347,-0.1,1,301.0,602.0,1.0,337.0,1,0.3407873997938991,0.3407873997938991
909,909,-0.5857326342220632,-0.6,1,262.0,743.0,1.0,265.0,1,0.26418083788940494,0.26418083788940494
910,910,-0.21222641630568595,-0.2,1,333.0,968.0,1.0,329.0,1,0.4116902648088101,0.4116902648088101
911,911,0.6273460232050059,0.6,0,304.0,852.0,0.0,344.0,1,0.49075384433439506,0.49075384433439506
912,912,-0.0620665958112987,-0.1,1,327.0,650.0,0.0,653.0,0,0.05986984867928463,0.05986984867928463
913,913,-0.389893937167312,-0.4,1,275.0,583.0,1.0,212.0,1,0.3976887519276163,0.3976887519276163
914,914,0.5474794468266144,0.5,0,340.0,551.0,0.0,349.0,1,0.18503858238891419,0.18503858238891419
915,915,-0.8061723950641126,-0.8,1,491.0,692.0,1.0,267.0,1,0.1053893372523303,0.1053893372523303
916,916,-0.19335239194975817,-0.2,1,419.0,535.0,1.0,226.0,1,0.009937320497341029,0.009937320497341029
917,917,0.4619074624048862,0.5,0,375.0,739.0,0.0,436.0,1,0.3073330783392842,0.3073330783392842
918,918,0.8723306486639653,0.9,0,481.0,812.0,0.0,337.0,1,0.0068933612888289475,0.0068933612888289475
919,919,0.7988715458847933,0.8,0,438.0,713.0,0.0,259.0,1,0.48017823006782867,0.48017823006782867
920,920,-0.47721236372058895,-0.5,1,289.0,833.0,1.0,368.0,1,0.08792870609468939,0.08792870609468939
921,921,-0.15730436612252774,-0.2,1,376.0,648.0,1.0,346.0,1,0.20863361684822884,0.20863361684822884
922,922,0.6392449371762878,0.6,0,324.0,575.0,0.0,281.0,1,0.399187238925726,0.399187238925726
923,923,0.3913261283527856,0.4,0,348.0,812.0,0.0,720.0,1,0.05187608299623514,0.05187608299623514
924,924,0.9766393259619643,1.0,0,339.0,535.0,0.0,306.0,1,0.34456249628100183,0.34456249628100183
925,925,-0.7398167737547658,-0.7,1,377.0,891.0,1.0,252.0,1,0.18457169785457173,0.18457169785457173
926,926,0.49302939249402566,0.5,0,384.0,798.0,0.0,378.0,1,0.14300542155862678,0.14300542155862678
927,927,0.9995548537220613,1.0,0,317.0,500.0,0.0,283.0,1,0.2828127839211324,0.2828127839211324
928,928,0.57160004840186,0.6,0,339.0,610.0,0.0,371.0,1,0.26833832528864937,0.26833832528864937
929,929,0.08428499913267085,0.1,0,434.0,841.0,0.0,1215.0,1,0.2403100223750358,0.2403100223750358
930,930,0.17620752804351225,0.2,0,260.0,698.0,0.0,1152.0,1,0.2683867557049297,0.2683867557049297
931,931,-0.5763907264155117,-0.6,1,479.0,515.0,1.0,236.0,1,0.29969122789458513,0.29969122789458513
932,932,-0.15415714705973915,-0.2,1,418.0,512.0,1.0,180.0,1,0.4185089955084676,0.4185089955084676
933,933,-0.4040365491696387,-0.4,1,388.0,542.0,1.0,220.0,1,0.052029041657283726,0.052029041657283726
934,934,-0.8642438213275809,-0.9,1,276.0,593.0,1.0,221.0,1,0.027136279532129604,0.027136279532129604
935,935,-0.36439911390233126,-0.4,1,390.0,779.0,1.0,761.0,1,0.4665383386172,0.4665383386172
936,936,0.7897925854279109,0.8,0,477.0,996.0,0.0,227.0,1,0.41407303327218753,0.41407303327218753
937,937,0.14238736153191667,0.1,0,269.0,594.0,0.0,1657.0,1,0.19904458311742762,0.19904458311742762
938,938,0.8306107008630583,0.8,0,311.0,762.0,0.0,227.0,1,0.20508530269696684,0.20508530269696684
939,939,0.3008627004620139,0.3,0,487.0,982.0,1.0,331.0,0,0.2648295672203258,0.2648295672203258
940,940,-0.10929438985970896,-0.1,1,323.0,762.0,1.0,2775.0,1,0.4195982381490083,0.4195982381490083
941,941,0.40534545824211654,0.4,0,399.0,972.0,0.0,229.0,1,0.14436493213804008,0.14436493213804008
942,942,0.11917264425352081,0.1,0,378.0,731.0,0.0,371.0,1,0.3911698024082524,0.3911698024082524
943,943,0.4624608791735423,0.5,0,494.0,886.0,0.0,450.0,1,0.4252006855469374,0.4252006855469374
944,944,0.2984167479153441,0.3,0,291.0,669.0,0.0,250.0,1,0.2149074772634345,0.2149074772634345
945,945,-0.04947659404567917,-0.0,1,356.0,823.0,1.0,1871.0,1,0.29874503563809196,0.29874503563809196
946,946,0.7049416416950858,0.7,0,316.0,908.0,0.0,326.0,1,0.1259005806066842,0.1259005806066842
947,947,-0.21566833945306474,-0.2,1,372.0,757.0,1.0,361.0,1,0.347953053374683,0.347953053374683
948,948,-0.7355076630556945,-0.7,1,289.0,662.0,1.0,309.0,1,0.47870811592408197,0.47870811592408197
949,949,-0.9549820572981003,-1.0,1,268.0,721.0,1.0,271.0,1,0.2089506766449693,0.2089506766449693
950,950,0.16045126497652906,0.2,0,497.0,938.0,0.0,1595.0,1,0.033524373961647314,0.033524373961647314
951,951,0.8548626162441946,0.9,0,428.0,903.0,0.0,139.0,1,0.30487656070287034,0.30487656070287034
952,952,0.15061484921564294,0.2,0,372.0,776.0,1.0,62.0,0,0.18013933633730395,0.18013933633730395
953,953,0.2905128364061078,0.3,0,391.0,837.0,0.0,792.0,1,0.2250194052947005,0.2250194052947005
954,954,-0.6044655413414837,-0.6,1,436.0,903.0,1.0,411.0,1,0.22216750600798318,0.22216750600798318
955,955,0.5997902370505672,0.6,0,381.0,979.0,0.0,290.0,1,0.2929266319550021,0.2929266319550021
956,956,0.2534934375195541,0.3,0,326.0,699.0,0.0,655.0,1,0.013281882625575003,0.013281882625575003
957,957,0.05524721792705023,0.1,0,396.0,534.0,0.0,2490.0,1,0.22360300414625633,0.22360300414625633
958,958,0.08849453199590362,0.1,0,361.0,601.0,0.0,1688.0,1,0.0229114939517428,0.0229114939517428
959,959,0.32833609936163244,0.3,0,447.0,563.0,0.0,960.0,1,0.42081773580357035,0.42081773580357035
960,960,-0.27632924427470673,-0.3,1,447.0,784.0,1.0,339.0,1,0.4601161619983328,0.4601161619983328
961,961,0.29293194985936677,0.3,0,351.0,693.0,0.0,636.0,1,0.32667562276971274,0.32667562276971274
962,962,-0.3693921431409224,-0.4,1,373.0,684.0,1.0,563.0,1,0.38120525665657595,0.38120525665657595
963,963,0.07282897937968169,0.1,0,262.0,693.0,1.0,485.0,0,0.37091303593619357,0.37091303593619357
964,964,-0.8524874141494647,-0.9,1,363.0,538.0,1.0,339.0,1,0.1922918838892816,0.1922918838892816
965,965,-0.9929614044475608,-1.0,1,433.0,694.0,1.0,303.0,1,0.33336438883578273,0.33336438883578273
966,966,-0.7967391524186047,-0.8,1,460.0,600.0,1.0,220.0,1,0.3643510549672713,0.3643510549672713
967,967,-0.7783027791819221,-0.8,1,407.0,686.0,1.0,247.0,1,0.3657066705448879,0.3657066705448879
968,968,-0.005208190637561172,-0.0,1,413.0,599.0,0.0,708.0,0,0.31688280718383055,0.31688280718383055
969,969,0.2013500519194822,0.2,0,296.0,899.0,0.0,705.0,1,0.13622841429199412,0.13622841429199412
970,970,-0.5676159941905452,-0.6,1,269.0,770.0,1.0,351.0,1,0.21934806287965242,0.21934806287965242
971,971,0.12926575271696583,0.1,0,411.0,647.0,0.0,352.0,1,0.4961532435875904,0.4961532435875904
972,972,0.9032026402893458,0.9,0,287.0,827.0,0.0,356.0,1,0.21329274792609254,0.21329274792609254
973,973,-0.4666672450673597,-0.5,1,492.0,650.0,1.0,588.0,1,0.23392179047267941,0.23392179047267941
974,974,-0.45816777878794634,-0.5,1,442.0,509.0,1.0,309.0,1,0.0639950349791159,0.0639950349791159
975,975,0.6525712022951411,0.7,0,442.0,962.0,0.0,256.0,1,0.4316969180126986,0.4316969180126986
976,976,0.13459984352622434,0.1,0,288.0,971.0,0.0,431.0,1,0.41224008031862086,0.41224008031862086
977,977,-0.8414065664890225,-0.8,1,266.0,678.0,1.0,416.0,1,0.09732584166122638,0.09732584166122638
978,978,-0.9066774010951053,-0.9,1,355.0,691.0,1.0,364.0,1,0.12877383958302213,0.12877383958302213
979,979,0.7684063423627507,0.8,0,496.0,562.0,0.0,332.0,1,0.4137300325094149,0.4137300325094149
980,980,-0.6177197129915182,-0.6,1,423.0,630.0,1.0,187.0,1,0.40344391388375395,0.40344391388375395
981,981,0.7511349614615532,0.8,0,453.0,764.0,0.0,153.0,1,0.24545045963171103,0.24545045963171103
982,982,0.8546455126437618,0.9,0,479.0,990.0,0.0,181.0,1,0.0364632177800141,0.0364632177800141
983,983,-0.055096417869223924,-0.1,1,258.0,955.0,1.0,407.0,1,0.13446579451904245,0.13446579451904245
984,984,-0.3582322412846741,-0.4,1,484.0,583.0,1.0,453.0,1,0.2850094195259988,0.2850094195259988
985,985,-0.3238478573638812,-0.3,1,498.0,791.0,1.0,191.0,1,0.10554280681743772,0.10554280681743772
986,986,0.8408870525571768,0.8,0,345.0,963.0,0.0,292.0,1,0.3509776474693407,0.3509776474693407
987,987,0.5165422067188752,0.5,0,386.0,551.0,0.0,383.0,1,0.011738987989257044,0.011738987989257044
988,988,-0.6112788887324743,-0.6,1,297.0,677.0,1.0,356.0,1,0.4470831515039952,0.4470831515039952
989,989,-0.9826324152363535,-1.0,1,451.0,974.0,1.0,205.0,1,0.18646548627703857,0.18646548627703857
990,990,0.31293966008280116,0.3,0,459.0,815.0,0.0,346.0,1,0.18213906677225522,0.18213906677225522
991,991,-0.4854385755926789,-0.5,1,259.0,575.0,1.0,606.0,1,0.32032853416916274,0.32032853416916274
992,992,0.8678138078194917,0.9,0,374.0,678.0,0.0,278.0,1,0.16081687936702443,0.16081687936702443
993,993,-0.8018607335734071,-0.8,1,328.0,984.0,1.0,388.0,1,0.3014813937089011,0.3014813937089011
994,994,-0.9033281049864719,-0.9,1,304.0,725.0,1.0,181.0,1,0.3193124123556741,0.3193124123556741
995,995,0.3469622577842413,0.3,0,385.0,844.0,0.0,381.0,1,0.0477061604707415,0.0477061604707415
996,996,-0.40848985873676225,-0.4,1,332.0,731.0,1.0,577.0,1,0.4795323094941179,0.4795323094941179
997,997,0.6451868528946161,0.6,0,305.0,710.0,0.0,305.0,1,0.16633061115631614,0.16633061115631614
998,998,-0.460716283838537,-0.5,1,451.0,592.0,1.0,247.0,1,0.15263979151010953,0.15263979151010953
999,999,0.3362080528759632,0.3,0,332.0,738.0,0.0,600.0,1,0.03564566040021733,0.03564566040021733
1000,1000,0.47105839481325873,0.5,0,339.0,942.0,0.0,449.0,1,0.22291238324474538,0.22291238324474538
1001,1001,0.007815447045032675,0.0,0,275.0,903.0,0.0,382.0,1,0.442816168646853,0.442816168646853
1002,1002,0.3811304785599323,0.4,0,269.0,577.0,0.0,284.0,1,0.2545756084338203,0.2545756084338203
1003,1003,0.874520867345197,0.9,0,477.0,862.0,0.0,421.0,1,0.29961651276162526,0.29961651276162526
1004,1004,0.8806942296237206,0.9,0,404.0,610.0,0.0,336.0,1,0.1956934843185133,0.1956934843185133
1005,1005,0.04445211085488854,0.0,0,263.0,984.0,0.0,743.0,1,0.340755868524041,0.340755868524041
1006,1006,-0.3240986706789646,-0.3,1,348.0,550.0,1.0,392.0,1,0.3496983875620305,0.3496983875620305
1007,1007,0.5694396201539289,0.6,0,368.0,999.0,0.0,453.0,1,0.26288408253089174,0.26288408253089174
1008,1008,0.5958838233264785,0.6,0,468.0,655.0,0.0,327.0,1,0.1573682798701555,0.1573682798701555
1009,1009,-0.7919887828054983,-0.8,1,431.0,716.0,1.0,263.0,1,0.11596991193814887,0.11596991193814887
1010,1010,0.14617126730414332,0.1,0,459.0,539.0,0.0,962.0,1,0.04540198166391124,0.04540198166391124
1011,1011,0.8474537825452026,0.8,0,388.0,985.0,0.0,177.0,1,0.45250614213508555,0.45250614213508555
1012,1012,0.9636905479707285,1.0,0,268.0,947.0,0.0,235.0,1,0.4319793280862366,0.4319793280862366
1013,1013,0.7907799561994635,0.8,0,280.0,584.0,0.0,276.0,1,0.27081373087171745,0.27081373087171745
1014,1014,0.40094331902835934,0.4,0,432.0,504.0,0.0,514.0,1,0.36509032968576766,0.36509032968576766
1015,1015,0.6550880061573545,0.7,0,473.0,791.0,0.0,296.0,1,0.4608312992620809,0.4608312992620809
1016,1016,0.8337634724953098,0.8,0,382.0,674.0,0.0,304.0,1,0.3996443327245339,0.3996443327245339
1017,1017,0.41578129730866387,0.4,0,468.0,661.0,0.0,311.0,1,0.07612508944705743,0.07612508944705743
1018,1018,-0.1228420622519264,-0.1,1,361.0,579.0,1.0,400.0,1,0.040213914655945315,0.040213914655945315
1019,1019,-0.6188709280857638,-0.6,1,334.0,708.0,1.0,258.0,1,0.48534668385530166,0.48534668385530166
1020,1020,-0.9210710300847702,-0.9,1,345.0,980.0,1.0,405.0,1,0.02283626236757086,0.02283626236757086
1021,1021,-0.6349656194731821,-0.6,1,333.0,861.0,1.0,406.0,1,0.10339330243222866,0.10339330243222866
1022,1022,-0.7821135697855235,-0.8,1,288.0,515.0,1.0,437.0,1,0.0934614927225012,0.0934614927225012
1023,1023,-0.7806994020268476,-0.8,1,365.0,710.0,1.0,345.0,1,0.442450181402484,0.442450181402484
