,trial,coherence,coherence_bin,correct_side,target_onset,checker_onset,decision,decision_time,correct_decision
0,0,0.21691542640392858,0.2,0,424.0,927.0,0.0,589.0,1
1,1,0.19269734712463782,0.2,0,389.0,776.0,0.0,1245.0,1
2,2,0.6232604384878704,0.6,0,346.0,688.0,0.0,756.0,1
3,3,-0.2972198916711082,-0.3,1,251.0,654.0,1.0,265.0,1
4,4,0.2951111049349784,0.3,0,280.0,612.0,0.0,2238.0,1
5,5,-0.306938516981331,-0.3,1,418.0,666.0,1.0,506.0,1
6,6,0.882840443482714,0.9,0,337.0,556.0,0.0,287.0,1
7,7,-0.6991615058104619,-0.7,1,326.0,575.0,1.0,739.0,1
8,8,0.7081580565670895,0.7,0,330.0,669.0,0.0,221.0,1
9,9,0.11249767081821416,0.1,0,446.0,500.0,0.0,314.0,1
10,10,0.21607354797755418,0.2,0,277.0,867.0,1.0,796.0,0
11,11,-0.8287183652099825,-0.8,1,314.0,717.0,1.0,299.0,1
12,12,-0.37284422905821124,-0.4,1,436.0,755.0,1.0,609.0,1
13,13,-0.7938663513073265,-0.8,1,371.0,558.0,1.0,1111.0,1
14,14,0.605221762510824,0.6,0,304.0,752.0,0.0,784.0,1
15,15,0.003893730084145064,0.0,0,472.0,852.0,0.0,1326.0,1
16,16,0.739504141249125,0.7,0,431.0,517.0,0.0,492.0,1
17,17,-0.31319000337046443,-0.3,1,499.0,511.0,1.0,1500.0,1
18,18,-0.572904695132143,-0.6,1,476.0,967.0,1.0,307.0,1
19,19,-0.1553973957146071,-0.2,1,326.0,544.0,1.0,490.0,1
20,20,0.5135283147695597,0.5,0,457.0,578.0,0.0,995.0,1
21,21,-0.580437295216677,-0.6,1,322.0,939.0,1.0,829.0,1
22,22,0.7834300821856341,0.8,0,465.0,828.0,0.0,277.0,1
23,23,-0.2653797124941524,-0.3,1,276.0,793.0,0.0,741.0,0
24,24,-0.7739908580198802,-0.8,1,456.0,946.0,1.0,288.0,1
25,25,-0.5868714884603585,-0.6,1,409.0,605.0,1.0,356.0,1
26,26,-0.786807559438258,-0.8,1,493.0,980.0,1.0,707.0,1
27,27,-0.5234263638397274,-0.5,1,468.0,944.0,1.0,338.0,1
28,28,0.7269991156276896,0.7,0,325.0,708.0,0.0,417.0,1
29,29,0.16882179132018793,0.2,0,364.0,957.0,0.0,899.0,1
30,30,-0.95007890529007,-1.0,1,354.0,895.0,1.0,311.0,1
31,31,0.9398556470218107,0.9,0,417.0,836.0,0.0,327.0,1
32,32,0.8558505691202571,0.9,0,473.0,632.0,0.0,705.0,1
33,33,-0.4561450851562714,-0.5,1,432.0,661.0,0.0,677.0,0
34,34,-0.5976715690906038,-0.6,1,497.0,563.0,1.0,370.0,1
35,35,0.5734521052142738,0.6,0,283.0,879.0,0.0,558.0,1
36,36,0.6553421550607761,0.7,0,273.0,907.0,0.0,480.0,1
37,37,-0.17853862326039316,-0.2,1,469.0,925.0,0.0,1346.0,0
38,38,0.3572046029312814,0.4,0,262.0,798.0,0.0,2760.0,1
39,39,-0.05295825277059185,-0.1,1,439.0,594.0,0.0,1817.0,0
40,40,-0.7257299670901447,-0.7,1,428.0,919.0,1.0,343.0,1
41,41,0.02404700090996381,0.0,0,475.0,821.0,1.0,2314.0,0
42,42,0.3009613222781864,0.3,0,432.0,660.0,0.0,1048.0,1
43,43,0.11307875482305918,0.1,0,423.0,622.0,0.0,265.0,1
44,44,0.9999830580473954,1.0,0,298.0,511.0,0.0,761.0,1
45,45,-0.8274910528921331,-0.8,1,259.0,674.0,1.0,387.0,1
46,46,-0.4845729336994833,-0.5,1,406.0,776.0,0.0,588.0,0
47,47,-0.3402275256723073,-0.3,1,292.0,853.0,1.0,625.0,1
48,48,-0.09150985168385772,-0.1,1,413.0,662.0,0.0,725.0,0
49,49,0.45557749446128315,0.5,0,427.0,661.0,0.0,1562.0,1
50,50,0.9739969660032484,1.0,0,451.0,967.0,0.0,342.0,1
51,51,-0.7762371886860311,-0.8,1,442.0,867.0,1.0,551.0,1
52,52,-0.23971534028416386,-0.2,1,314.0,860.0,1.0,996.0,1
53,53,-0.2184117567053414,-0.2,1,473.0,909.0,1.0,748.0,1
54,54,-0.8856606951548227,-0.9,1,301.0,559.0,1.0,620.0,1
55,55,-0.6250348930964251,-0.6,1,315.0,507.0,0.0,238.0,0
56,56,0.9029915836727267,0.9,0,281.0,919.0,0.0,450.0,1
57,57,0.2560279465813955,0.3,0,316.0,784.0,0.0,380.0,1
58,58,0.3913738325785012,0.4,0,337.0,603.0,0.0,730.0,1
59,59,0.08131216977353262,0.1,0,492.0,845.0,1.0,2353.0,0
60,60,-0.31603868564754944,-0.3,1,257.0,902.0,1.0,1151.0,1
61,61,-0.24263080874801002,-0.2,1,372.0,847.0,0.0,3051.0,0
62,62,-0.6082856536247563,-0.6,1,429.0,511.0,1.0,570.0,1
63,63,0.6419491166634328,0.6,0,446.0,812.0,0.0,382.0,1
64,64,-0.17651716974307163,-0.2,1,310.0,678.0,1.0,2142.0,1
65,65,-0.016736758685981012,-0.0,1,341.0,699.0,0.0,570.0,0
66,66,0.8508913034417509,0.9,0,346.0,589.0,0.0,635.0,1
67,67,0.8166925922798545,0.8,0,335.0,627.0,0.0,428.0,1
68,68,0.4236200418652567,0.4,0,279.0,969.0,0.0,1642.0,1
69,69,-0.9707983317261568,-1.0,1,439.0,621.0,1.0,600.0,1
70,70,0.12692842789483905,0.1,0,347.0,738.0,1.0,355.0,0
71,71,0.17776340135827562,0.2,0,487.0,897.0,1.0,506.0,0
72,72,0.1347405188446904,0.1,0,400.0,834.0,0.0,266.0,1
73,73,0.6875929611358498,0.7,0,363.0,894.0,0.0,683.0,1
74,74,0.2964997175862094,0.3,0,271.0,671.0,0.0,1438.0,1
75,75,-0.8527667048146872,-0.9,1,450.0,969.0,1.0,191.0,1
76,76,0.507591552194089,0.5,0,273.0,679.0,0.0,458.0,1
77,77,-0.26320494213809287,-0.3,1,289.0,537.0,1.0,834.0,1
78,78,-0.971919039652074,-1.0,1,484.0,935.0,1.0,421.0,1
79,79,0.7567761054243414,0.8,0,361.0,859.0,0.0,330.0,1
80,80,-0.2672121438357413,-0.3,1,488.0,708.0,1.0,1824.0,1
81,81,-0.9311755508326154,-0.9,1,278.0,811.0,1.0,301.0,1
82,82,-0.8925684188651934,-0.9,1,449.0,675.0,1.0,2046.0,1
83,83,-0.8637125757875934,-0.9,1,383.0,988.0,1.0,259.0,1
84,84,-0.020071990863852918,-0.0,1,431.0,828.0,1.0,831.0,1
85,85,-0.6733379182710699,-0.7,1,355.0,618.0,1.0,1047.0,1
86,86,-0.635141948813621,-0.6,1,368.0,614.0,1.0,618.0,1
87,87,-0.19659694892715196,-0.2,1,412.0,990.0,1.0,638.0,1
88,88,-0.6538001906068356,-0.7,1,303.0,960.0,1.0,887.0,1
89,89,-0.018640760117452748,-0.0,1,466.0,595.0,1.0,3349.0,1
90,90,-0.9654104059172444,-1.0,1,425.0,985.0,1.0,380.0,1
91,91,-0.5015145434491268,-0.5,1,434.0,837.0,1.0,789.0,1
92,92,0.26185004325978767,0.3,0,478.0,502.0,0.0,570.0,1
93,93,-0.975240124603856,-1.0,1,353.0,505.0,1.0,342.0,1
94,94,0.3267327525112753,0.3,0,422.0,530.0,0.0,1278.0,1
95,95,-0.6293973676461762,-0.6,1,378.0,553.0,1.0,649.0,1
96,96,0.3301143068872745,0.3,0,481.0,522.0,0.0,2497.0,1
97,97,0.6065784991497851,0.6,0,490.0,846.0,0.0,244.0,1
98,98,0.4323777682310388,0.4,0,343.0,981.0,1.0,546.0,0
99,99,0.7049370232139653,0.7,0,261.0,608.0,0.0,381.0,1
100,100,-0.6449945321394901,-0.6,1,376.0,593.0,1.0,1511.0,1
101,101,0.914494002424532,0.9,0,271.0,508.0,0.0,351.0,1
102,102,-0.22438665456976348,-0.2,1,344.0,986.0,1.0,1590.0,1
103,103,-0.20415933740003211,-0.2,1,456.0,772.0,0.0,2282.0,0
104,104,-0.4477258044695167,-0.4,1,455.0,691.0,1.0,1474.0,1
105,105,-0.017571262200753557,-0.0,1,495.0,840.0,0.0,1215.0,0
106,106,-0.2215689067827138,-0.2,1,392.0,938.0,1.0,770.0,1
107,107,-0.1587551509637668,-0.2,1,425.0,589.0,1.0,306.0,1
108,108,-0.6630256012443598,-0.7,1,385.0,837.0,1.0,488.0,1
109,109,0.1556110500349761,0.2,0,477.0,825.0,1.0,1858.0,0
110,110,-0.1445908197348198,-0.1,1,487.0,516.0,1.0,2497.0,1
111,111,0.552486484210645,0.6,0,269.0,703.0,0.0,358.0,1
112,112,-0.8053681554017202,-0.8,1,336.0,973.0,1.0,411.0,1
113,113,-0.7083982245273894,-0.7,1,487.0,919.0,1.0,194.0,1
114,114,0.05203449487785283,0.1,0,289.0,571.0,1.0,1900.0,0
115,115,-0.6440087500912168,-0.6,1,489.0,854.0,1.0,887.0,1
116,116,-0.2749969658888294,-0.3,1,483.0,715.0,1.0,362.0,1
117,117,0.5622363871938805,0.6,0,468.0,962.0,0.0,910.0,1
118,118,-0.5538747753703053,-0.6,1,471.0,619.0,1.0,940.0,1
119,119,0.16006066473248226,0.2,0,361.0,644.0,1.0,375.0,0
120,120,-0.955310178990052,-1.0,1,453.0,703.0,1.0,544.0,1
121,121,-0.24276741196624352,-0.2,1,487.0,836.0,1.0,487.0,1
122,122,0.5729975107734164,0.6,0,372.0,833.0,0.0,255.0,1
123,123,0.18583009929906913,0.2,0,386.0,521.0,0.0,463.0,1
124,124,-0.4524651437463125,-0.5,1,425.0,563.0,1.0,682.0,1
125,125,0.7842449142339425,0.8,0,361.0,696.0,0.0,323.0,1
126,126,0.7993110874764593,0.8,0,484.0,547.0,0.0,389.0,1
127,127,-0.3616789174436914,-0.4,1,437.0,727.0,1.0,706.0,1
128,128,-0.9888482640372556,-1.0,1,472.0,919.0,1.0,209.0,1
129,129,0.39418604817529723,0.4,0,272.0,606.0,0.0,1342.0,1
130,130,-0.9516865772735423,-1.0,1,438.0,922.0,1.0,320.0,1
131,131,0.8984392069288285,0.9,0,487.0,914.0,0.0,429.0,1
132,132,-0.38737347531170463,-0.4,1,413.0,803.0,1.0,544.0,1
133,133,-0.10299072842038703,-0.1,1,402.0,536.0,0.0,4062.0,0
134,134,0.24259741967261528,0.2,0,274.0,701.0,0.0,395.0,1
135,135,0.5200081914860639,0.5,0,318.0,571.0,0.0,1061.0,1
136,136,0.02238738956641728,0.0,0,374.0,578.0,1.0,778.0,0
137,137,0.7449329546501051,0.7,0,440.0,860.0,0.0,630.0,1
138,138,-0.5682542425068395,-0.6,1,380.0,736.0,1.0,424.0,1
139,139,0.18375386764594315,0.2,0,458.0,859.0,0.0,663.0,1
140,140,-0.09116218233526197,-0.1,1,447.0,990.0,1.0,3503.0,1
141,141,-0.1908890614691332,-0.2,1,498.0,846.0,1.0,256.0,1
142,142,0.8869377082415162,0.9,0,371.0,788.0,0.0,281.0,1
143,143,0.23913668569776547,0.2,0,482.0,913.0,1.0,455.0,0
144,144,-0.09525662779273447,-0.1,1,409.0,617.0,1.0,1694.0,1
145,145,-0.7754410939304253,-0.8,1,254.0,727.0,1.0,269.0,1
146,146,0.7545904989027079,0.8,0,330.0,960.0,0.0,630.0,1
147,147,0.5817990149346055,0.6,0,396.0,624.0,0.0,1930.0,1
148,148,0.6149879649722514,0.6,0,281.0,961.0,0.0,558.0,1
149,149,0.58846099005272,0.6,0,412.0,982.0,0.0,146.0,1
150,150,-0.3581420984595096,-0.4,1,331.0,976.0,1.0,883.0,1
151,151,0.7819195862742965,0.8,0,359.0,584.0,0.0,597.0,1
152,152,-0.47888221815442766,-0.5,1,281.0,845.0,1.0,914.0,1
153,153,-0.24984894948971204,-0.2,1,350.0,533.0,1.0,3377.0,1
154,154,0.9782891276448291,1.0,0,398.0,830.0,0.0,582.0,1
155,155,0.9106939241873075,0.9,0,360.0,684.0,0.0,326.0,1
156,156,0.905859029770393,0.9,0,351.0,724.0,0.0,525.0,1
157,157,-0.8910014233817662,-0.9,1,359.0,601.0,1.0,760.0,1
158,158,-0.3821292512491872,-0.4,1,361.0,513.0,1.0,1176.0,1
159,159,0.22582344928100917,0.2,0,369.0,537.0,0.0,3114.0,1
160,160,-0.5578223845923236,-0.6,1,286.0,923.0,1.0,121.0,1
161,161,0.8085036678684365,0.8,0,395.0,687.0,0.0,768.0,1
162,162,-0.3683820136416103,-0.4,1,377.0,908.0,1.0,465.0,1
163,163,-0.3085101078882866,-0.3,1,313.0,986.0,1.0,571.0,1
164,164,-0.8509178535192399,-0.9,1,474.0,600.0,1.0,906.0,1
165,165,0.49838143311078387,0.5,0,469.0,869.0,0.0,802.0,1
166,166,-0.026322742710556346,-0.0,1,345.0,863.0,1.0,922.0,1
167,167,-0.1277635568284068,-0.1,1,262.0,561.0,1.0,377.0,1
168,168,-0.9714941011805618,-1.0,1,255.0,869.0,1.0,196.0,1
169,169,0.9324184889630858,0.9,0,466.0,615.0,0.0,419.0,1
170,170,0.7684998165132111,0.8,0,289.0,953.0,0.0,1068.0,1
171,171,-0.29235836537932913,-0.3,1,360.0,625.0,1.0,335.0,1
172,172,0.09507506458316484,0.1,0,342.0,598.0,0.0,1230.0,1
173,173,0.6258611805928394,0.6,0,358.0,540.0,0.0,772.0,1
174,174,0.10679927158809877,0.1,0,396.0,864.0,1.0,1070.0,0
175,175,0.929139895906105,0.9,0,489.0,899.0,0.0,292.0,1
176,176,-0.8009726056086475,-0.8,1,351.0,730.0,1.0,549.0,1
177,177,0.5776664168822407,0.6,0,450.0,568.0,0.0,762.0,1
178,178,0.1421612288736751,0.1,0,471.0,953.0,1.0,1206.0,0
179,179,0.2576670365900262,0.3,0,396.0,954.0,0.0,450.0,1
180,180,0.07731316762353635,0.1,0,365.0,528.0,0.0,4107.0,1
181,181,0.8659778737626957,0.9,0,362.0,566.0,0.0,252.0,1
182,182,-0.056281364003964995,-0.1,1,284.0,941.0,0.0,435.0,0
183,183,0.9872973639257412,1.0,0,393.0,574.0,0.0,393.0,1
184,184,0.6747189904361215,0.7,0,438.0,802.0,0.0,980.0,1
185,185,0.841775129725798,0.8,0,255.0,680.0,0.0,315.0,1
186,186,-0.2566095228078078,-0.3,1,439.0,676.0,1.0,1865.0,1
187,187,-0.9757201371540973,-1.0,1,405.0,693.0,1.0,422.0,1
188,188,-0.20561673373321931,-0.2,1,374.0,508.0,1.0,638.0,1
189,189,0.15483770080236958,0.2,0,428.0,690.0,0.0,802.0,1
190,190,-0.3807563485343797,-0.4,1,285.0,623.0,0.0,1322.0,0
191,191,0.24916179941203298,0.2,0,458.0,747.0,0.0,545.0,1
192,192,-0.8046582486849734,-0.8,1,325.0,579.0,1.0,956.0,1
193,193,-0.2034251114128074,-0.2,1,389.0,642.0,1.0,619.0,1
194,194,0.9524328857771451,1.0,0,263.0,743.0,0.0,304.0,1
195,195,-0.1925848353621853,-0.2,1,437.0,836.0,1.0,1697.0,1
196,196,0.9557937006422639,1.0,0,351.0,909.0,0.0,290.0,1
197,197,0.9488668169400989,0.9,0,491.0,600.0,0.0,1109.0,1
198,198,-0.6276489927128159,-0.6,1,254.0,891.0,1.0,265.0,1
199,199,-0.8712153692156317,-0.9,1,258.0,910.0,1.0,502.0,1
200,200,0.20542624428129153,0.2,0,417.0,826.0,1.0,557.0,0
201,201,-0.652300393450596,-0.7,1,308.0,938.0,1.0,604.0,1
202,202,0.345344430683725,0.3,0,285.0,693.0,0.0,742.0,1
203,203,0.2759848045386355,0.3,0,332.0,542.0,0.0,1106.0,1
204,204,-0.05296033910469555,-0.1,1,345.0,893.0,1.0,722.0,1
205,205,0.9695473515327646,1.0,0,471.0,518.0,0.0,841.0,1
206,206,0.9358191227034951,0.9,0,436.0,656.0,0.0,518.0,1
207,207,0.3917194123606871,0.4,0,315.0,738.0,0.0,617.0,1
208,208,0.3144431535968346,0.3,0,315.0,505.0,0.0,1900.0,1
209,209,0.7926352067973541,0.8,0,344.0,505.0,0.0,231.0,1
210,210,-0.6599030386838873,-0.7,1,426.0,888.0,1.0,326.0,1
211,211,-0.2705257684452891,-0.3,1,387.0,567.0,1.0,716.0,1
212,212,-0.5826786021485038,-0.6,1,460.0,911.0,1.0,1139.0,1
213,213,-0.07029796465097005,-0.1,1,403.0,783.0,1.0,1174.0,1
214,214,-0.2721916142834331,-0.3,1,346.0,916.0,1.0,1048.0,1
215,215,0.3728726410969567,0.4,0,416.0,632.0,0.0,402.0,1
216,216,-0.8691967680848602,-0.9,1,471.0,590.0,1.0,399.0,1
217,217,0.4169091534840832,0.4,0,360.0,712.0,0.0,1998.0,1
218,218,0.35584882359229497,0.4,0,295.0,607.0,0.0,1108.0,1
219,219,0.23821714179443032,0.2,0,336.0,845.0,0.0,3819.0,1
220,220,-0.9224271663398165,-0.9,1,413.0,630.0,1.0,387.0,1
221,221,0.8258017546233682,0.8,0,284.0,724.0,0.0,442.0,1
222,222,-0.9684271894666006,-1.0,1,479.0,746.0,1.0,495.0,1
223,223,-0.8024215770153487,-0.8,1,443.0,960.0,1.0,337.0,1
224,224,-0.5093137885460002,-0.5,1,286.0,739.0,1.0,1165.0,1
225,225,-0.2975287934285238,-0.3,1,258.0,928.0,1.0,1624.0,1
226,226,-0.6457511853013034,-0.6,1,409.0,557.0,1.0,884.0,1
227,227,-0.18476457756777176,-0.2,1,329.0,834.0,1.0,1967.0,1
228,228,-0.5449374519880454,-0.5,1,475.0,573.0,1.0,1202.0,1
229,229,0.10285685226595942,0.1,0,252.0,534.0,0.0,1824.0,1
230,230,-0.43197833929335516,-0.4,1,264.0,837.0,1.0,259.0,1
231,231,-0.8804937747194128,-0.9,1,263.0,576.0,1.0,381.0,1
232,232,-0.6211082988210213,-0.6,1,283.0,744.0,1.0,1903.0,1
233,233,-0.2500940774311906,-0.3,1,499.0,800.0,1.0,1211.0,1
234,234,-0.0664891273017123,-0.1,1,251.0,897.0,0.0,1142.0,0
235,235,-0.8954024401093938,-0.9,1,359.0,896.0,1.0,655.0,1
236,236,-0.1711900566692437,-0.2,1,317.0,581.0,0.0,1672.0,0
237,237,-0.6314619055250019,-0.6,1,383.0,523.0,1.0,514.0,1
238,238,-0.7558167344088773,-0.8,1,272.0,539.0,1.0,719.0,1
239,239,0.27651342781639143,0.3,0,358.0,917.0,0.0,685.0,1
240,240,-0.59877761736373,-0.6,1,478.0,862.0,1.0,750.0,1
241,241,0.662683406782826,0.7,0,404.0,682.0,0.0,644.0,1
242,242,-0.7889962370381196,-0.8,1,311.0,763.0,1.0,466.0,1
243,243,-0.3914874497663645,-0.4,1,330.0,825.0,1.0,1055.0,1
244,244,0.29600452189224336,0.3,0,275.0,516.0,0.0,4009.0,1
245,245,0.25328426950060634,0.3,0,408.0,748.0,0.0,474.0,1
246,246,-0.4503380984762613,-0.5,1,288.0,534.0,1.0,918.0,1
247,247,0.05983532192776986,0.1,0,465.0,555.0,0.0,650.0,1
248,248,-0.5579030866411812,-0.6,1,361.0,657.0,1.0,742.0,1
249,249,0.8187738313759543,0.8,0,287.0,565.0,0.0,1258.0,1
250,250,0.11635750484605079,0.1,0,435.0,634.0,1.0,1961.0,0
251,251,-0.5102404400379352,-0.5,1,420.0,730.0,1.0,380.0,1
252,252,0.4051905373026763,0.4,0,295.0,866.0,0.0,819.0,1
253,253,0.14719894011139156,0.1,0,339.0,583.0,0.0,138.0,1
254,254,-0.5356553140782088,-0.5,1,291.0,850.0,1.0,819.0,1
255,255,0.08325862048776012,0.1,0,392.0,536.0,0.0,2762.0,1
256,256,0.328896512750777,0.3,0,304.0,767.0,0.0,299.0,1
257,257,0.46227987262012626,0.5,0,461.0,880.0,0.0,439.0,1
258,258,-0.6586113505557389,-0.7,1,402.0,942.0,1.0,516.0,1
259,259,0.28564126028268166,0.3,0,408.0,855.0,0.0,727.0,1
260,260,0.027861582988913947,0.0,0,284.0,991.0,0.0,755.0,1
261,261,0.6711267605868028,0.7,0,433.0,701.0,0.0,426.0,1
262,262,-0.42888815599116903,-0.4,1,348.0,882.0,1.0,850.0,1
263,263,-0.47994478041812516,-0.5,1,399.0,871.0,1.0,470.0,1
264,264,0.5612776554081114,0.6,0,364.0,538.0,0.0,1508.0,1
265,265,-0.27056406954925283,-0.3,1,405.0,832.0,0.0,2153.0,0
266,266,0.22986425671201505,0.2,0,371.0,542.0,0.0,2427.0,1
267,267,-0.7158038620731413,-0.7,1,421.0,895.0,1.0,424.0,1
268,268,-0.3492572277773969,-0.3,1,498.0,781.0,1.0,1441.0,1
269,269,-0.8565194055505072,-0.9,1,266.0,714.0,1.0,670.0,1
270,270,0.45653334279580116,0.5,0,387.0,535.0,0.0,978.0,1
271,271,0.9033370720399154,0.9,0,340.0,936.0,0.0,704.0,1
272,272,0.19128685461674388,0.2,0,270.0,953.0,0.0,1417.0,1
273,273,0.6653239212458819,0.7,0,301.0,928.0,0.0,391.0,1
274,274,-0.9088219058145102,-0.9,1,394.0,779.0,1.0,467.0,1
275,275,-0.8517236730936453,-0.9,1,360.0,595.0,1.0,195.0,1
276,276,0.9295940969304073,0.9,0,484.0,931.0,0.0,375.0,1
277,277,0.06696779619370896,0.1,0,488.0,825.0,1.0,587.0,0
278,278,0.8645832559618967,0.9,0,483.0,681.0,0.0,406.0,1
279,279,0.15808234076027916,0.2,0,290.0,916.0,0.0,504.0,1
280,280,0.3471739625285575,0.3,0,435.0,921.0,0.0,604.0,1
281,281,0.8988114248904793,0.9,0,317.0,905.0,0.0,568.0,1
282,282,0.1625764476292637,0.2,0,410.0,697.0,1.0,3893.0,0
283,283,0.9604015843208484,1.0,0,293.0,735.0,0.0,462.0,1
284,284,0.6114580250967874,0.6,0,435.0,533.0,0.0,262.0,1
285,285,-0.5292605877548251,-0.5,1,437.0,746.0,1.0,577.0,1
286,286,0.8160752370157831,0.8,0,469.0,671.0,0.0,400.0,1
287,287,-0.032589793789389976,-0.0,1,355.0,663.0,1.0,1872.0,1
288,288,-0.4044909680225839,-0.4,1,420.0,730.0,1.0,320.0,1
289,289,0.8272992697711168,0.8,0,330.0,960.0,0.0,1440.0,1
290,290,0.5619995185312843,0.6,0,370.0,831.0,0.0,259.0,1
291,291,0.8897816293806873,0.9,0,486.0,804.0,0.0,670.0,1
292,292,-0.0537340727313762,-0.1,1,399.0,581.0,0.0,1260.0,0
293,293,0.9567031301373385,1.0,0,272.0,593.0,0.0,405.0,1
294,294,0.9942143589635939,1.0,0,416.0,983.0,0.0,411.0,1
295,295,-0.391221962043645,-0.4,1,395.0,600.0,1.0,305.0,1
296,296,-0.08154283985944821,-0.1,1,381.0,530.0,0.0,1369.0,0
297,297,-0.8554975698771632,-0.9,1,476.0,725.0,1.0,489.0,1
298,298,0.9615507309441871,1.0,0,395.0,775.0,0.0,490.0,1
299,299,-0.6674940905622162,-0.7,1,427.0,539.0,1.0,264.0,1
300,300,-0.9598849971177539,-1.0,1,452.0,813.0,1.0,785.0,1
301,301,0.273505215215075,0.3,0,463.0,860.0,0.0,487.0,1
302,302,0.8123525359882355,0.8,0,482.0,970.0,0.0,918.0,1
303,303,0.27352131176498884,0.3,0,423.0,850.0,0.0,297.0,1
304,304,0.046899669779526754,0.0,0,346.0,600.0,1.0,1174.0,0
305,305,-0.4295272627986426,-0.4,1,428.0,929.0,1.0,953.0,1
306,306,0.6177093098036714,0.6,0,352.0,775.0,0.0,503.0,1
307,307,0.4028730630563897,0.4,0,280.0,873.0,0.0,547.0,1
308,308,0.25452614438397325,0.3,0,417.0,563.0,0.0,970.0,1
309,309,-0.24459883583135578,-0.2,1,456.0,679.0,1.0,425.0,1
310,310,0.7819035314655118,0.8,0,423.0,551.0,0.0,2866.0,1
311,311,-0.47326221066280905,-0.5,1,305.0,953.0,1.0,692.0,1
312,312,-0.1401817163358312,-0.1,1,293.0,997.0,1.0,690.0,1
313,313,-0.9483923758758794,-0.9,1,408.0,809.0,1.0,363.0,1
314,314,0.6733072528031447,0.7,0,453.0,800.0,0.0,807.0,1
315,315,0.9805990067568711,1.0,0,412.0,868.0,0.0,390.0,1
316,316,0.7455549997762865,0.7,0,353.0,827.0,0.0,730.0,1
317,317,0.14804843989672567,0.1,0,422.0,569.0,0.0,1369.0,1
318,318,0.30479047538166126,0.3,0,369.0,655.0,1.0,946.0,0
319,319,0.031960214139109766,0.0,0,466.0,816.0,0.0,458.0,1
320,320,0.40199131502037444,0.4,0,381.0,784.0,0.0,975.0,1
321,321,-0.9298878313283574,-0.9,1,375.0,961.0,1.0,544.0,1
322,322,0.5635568584214625,0.6,0,307.0,539.0,0.0,554.0,1
323,323,-0.8922710776078644,-0.9,1,364.0,718.0,1.0,628.0,1
324,324,0.32877988809194836,0.3,0,288.0,851.0,0.0,1031.0,1
325,325,0.35450862642162617,0.4,0,459.0,809.0,0.0,462.0,1
326,326,-0.8992248782629191,-0.9,1,492.0,595.0,1.0,943.0,1
327,327,-0.5956598401250133,-0.6,1,403.0,688.0,1.0,439.0,1
328,328,0.5807065620501852,0.6,0,404.0,546.0,0.0,340.0,1
329,329,-0.5583739918928663,-0.6,1,441.0,602.0,1.0,947.0,1
330,330,-0.4939874305293368,-0.5,1,363.0,875.0,1.0,2272.0,1
331,331,-0.04122042407740589,-0.0,1,419.0,910.0,0.0,971.0,0
332,332,0.09436369093006225,0.1,0,357.0,866.0,0.0,2037.0,1
333,333,-0.5821346470008937,-0.6,1,497.0,868.0,1.0,1055.0,1
334,334,0.434866180911214,0.4,0,434.0,667.0,1.0,2059.0,0
335,335,-0.3962147425699447,-0.4,1,481.0,728.0,1.0,901.0,1
336,336,0.5789271534711449,0.6,0,356.0,742.0,0.0,872.0,1
337,337,0.09237090278373605,0.1,0,334.0,839.0,1.0,1357.0,0
338,338,0.8654551053602937,0.9,0,445.0,746.0,0.0,659.0,1
339,339,-0.8252286403506348,-0.8,1,335.0,745.0,1.0,610.0,1
340,340,-0.2855951740743401,-0.3,1,483.0,871.0,1.0,406.0,1
341,341,-0.2234944004922097,-0.2,1,279.0,744.0,1.0,547.0,1
342,342,0.0812091713698384,0.1,0,334.0,843.0,1.0,223.0,0
343,343,-0.11667723278855302,-0.1,1,402.0,567.0,1.0,991.0,1
344,344,0.9603839273294512,1.0,0,367.0,834.0,0.0,189.0,1
345,345,-0.2686419524325554,-0.3,1,319.0,611.0,1.0,1450.0,1
346,346,-0.6417647918421836,-0.6,1,413.0,807.0,1.0,850.0,1
347,347,0.007481446178100537,0.0,0,470.0,989.0,1.0,1011.0,0
348,348,-0.04911353620667258,-0.0,1,391.0,545.0,1.0,864.0,1
349,349,-0.9696971477110281,-1.0,1,472.0,575.0,1.0,503.0,1
350,350,-0.7996155133033134,-0.8,1,422.0,978.0,1.0,1320.0,1
351,351,0.5400694419017937,0.5,0,431.0,517.0,0.0,1102.0,1
352,352,-0.31829068063950694,-0.3,1,413.0,670.0,1.0,687.0,1
353,353,-0.19522205095719292,-0.2,1,469.0,980.0,1.0,171.0,1
354,354,0.17176345774778112,0.2,0,366.0,922.0,0.0,1002.0,1
355,355,0.07854546129396889,0.1,0,358.0,664.0,0.0,998.0,1
356,356,-0.8618621133033069,-0.9,1,473.0,990.0,1.0,247.0,1
357,357,0.30763621686490206,0.3,0,402.0,766.0,0.0,1172.0,1
358,358,-0.3639279836462215,-0.4,1,476.0,741.0,1.0,1663.0,1
359,359,-0.8694411920869725,-0.9,1,470.0,893.0,1.0,307.0,1
360,360,0.46620485428072467,0.5,0,260.0,983.0,0.0,717.0,1
361,361,0.13995762729443628,0.1,0,465.0,662.0,1.0,373.0,0
362,362,0.06107001668890444,0.1,0,314.0,500.0,1.0,1436.0,0
363,363,0.38371981458794946,0.4,0,317.0,743.0,0.0,330.0,1
364,364,-0.09608771689474627,-0.1,1,404.0,916.0,1.0,460.0,1
365,365,0.04851276177437658,0.0,0,406.0,614.0,1.0,1400.0,0
366,366,0.8294266990910586,0.8,0,286.0,783.0,0.0,551.0,1
367,367,0.10116580027231215,0.1,0,324.0,957.0,1.0,1769.0,0
368,368,0.7003263289377102,0.7,0,479.0,540.0,0.0,561.0,1
369,369,0.9301612284157244,0.9,0,252.0,869.0,0.0,649.0,1
370,370,-0.7770739415644212,-0.8,1,265.0,897.0,1.0,238.0,1
371,371,0.5921599196573042,0.6,0,458.0,896.0,0.0,636.0,1
372,372,0.8063435054359211,0.8,0,475.0,868.0,0.0,467.0,1
373,373,0.52810693785289,0.5,0,376.0,803.0,0.0,761.0,1
374,374,0.9166253728475446,0.9,0,258.0,649.0,0.0,283.0,1
375,375,-0.14150073911918293,-0.1,1,269.0,742.0,0.0,419.0,0
376,376,0.5357176063086517,0.5,0,324.0,895.0,0.0,951.0,1
377,377,0.1384316053165453,0.1,0,349.0,677.0,1.0,2654.0,0
378,378,-0.014798462703939697,-0.0,1,268.0,833.0,0.0,599.0,0
379,379,0.021202589681850403,0.0,0,282.0,966.0,1.0,3752.0,0
380,380,-0.21631061609196367,-0.2,1,449.0,604.0,1.0,1447.0,1
381,381,0.44850508153831936,0.4,0,394.0,806.0,0.0,960.0,1
382,382,0.12793884847789605,0.1,0,298.0,885.0,0.0,577.0,1
383,383,0.3378454624518221,0.3,0,476.0,687.0,0.0,567.0,1
384,384,-0.21850890426658398,-0.2,1,442.0,894.0,1.0,764.0,1
385,385,0.029371418135667904,0.0,0,362.0,989.0,0.0,709.0,1
386,386,0.020566368789681544,0.0,0,378.0,571.0,0.0,1771.0,1
387,387,-0.6170255095842114,-0.6,1,255.0,956.0,1.0,659.0,1
388,388,0.27644167892062743,0.3,0,455.0,882.0,0.0,1013.0,1
389,389,-0.8731823227603095,-0.9,1,401.0,698.0,1.0,431.0,1
390,390,0.6660354160384074,0.7,0,429.0,753.0,0.0,658.0,1
391,391,0.2265259692778856,0.2,0,271.0,555.0,0.0,2414.0,1
392,392,0.23532288177583194,0.2,0,468.0,740.0,0.0,1532.0,1
393,393,-0.8452111158572391,-0.8,1,286.0,800.0,1.0,354.0,1
394,394,0.8652217995313318,0.9,0,387.0,550.0,0.0,453.0,1
395,395,-0.8959132242362937,-0.9,1,323.0,630.0,1.0,937.0,1
396,396,0.554520753762715,0.6,0,489.0,500.0,0.0,1881.0,1
397,397,-0.4515276505790309,-0.5,1,339.0,626.0,1.0,705.0,1
398,398,-0.9030098088542844,-0.9,1,279.0,542.0,1.0,239.0,1
399,399,-0.8640839006510102,-0.9,1,421.0,586.0,1.0,413.0,1
400,400,-0.772919483144354,-0.8,1,418.0,872.0,1.0,270.0,1
401,401,-0.3938838448281481,-0.4,1,398.0,912.0,1.0,1760.0,1
402,402,-0.4280869614698146,-0.4,1,451.0,636.0,1.0,823.0,1
403,403,0.01700601231519605,0.0,0,301.0,694.0,1.0,725.0,0
404,404,0.055415856387773355,0.1,0,323.0,726.0,0.0,1571.0,1
405,405,-0.6810941646413418,-0.7,1,413.0,832.0,1.0,475.0,1
406,406,0.9212663505628971,0.9,0,457.0,672.0,0.0,331.0,1
407,407,0.03008419202477275,0.0,0,297.0,940.0,1.0,1293.0,0
408,408,-0.93685628390227,-0.9,1,401.0,667.0,1.0,832.0,1
409,409,-0.5200995005603342,-0.5,1,251.0,730.0,1.0,1809.0,1
410,410,0.47291999861837275,0.5,0,359.0,681.0,0.0,690.0,1
411,411,0.6492403891717011,0.6,0,312.0,757.0,0.0,291.0,1
412,412,-0.0809180017301292,-0.1,1,294.0,535.0,1.0,701.0,1
413,413,0.25316286717247727,0.3,0,327.0,880.0,0.0,2463.0,1
414,414,0.7938880876908105,0.8,0,370.0,530.0,0.0,450.0,1
415,415,-0.526895626252349,-0.5,1,354.0,758.0,1.0,278.0,1
416,416,-0.30548533134922873,-0.3,1,315.0,533.0,1.0,1342.0,1
417,417,-0.6115673184088475,-0.6,1,382.0,820.0,1.0,548.0,1
418,418,0.25116851137987184,0.3,0,282.0,990.0,0.0,648.0,1
419,419,-0.8497405901640751,-0.8,1,448.0,964.0,1.0,468.0,1
420,420,0.3971944376712051,0.4,0,471.0,980.0,0.0,1419.0,1
421,421,-0.024759535661721177,-0.0,1,390.0,835.0,1.0,535.0,1
422,422,-0.9996062004985073,-1.0,1,371.0,740.0,1.0,709.0,1
423,423,0.3170260967077285,0.3,0,484.0,567.0,0.0,299.0,1
424,424,-0.45941351762795524,-0.5,1,341.0,595.0,1.0,344.0,1
425,425,0.25133037447686735,0.3,0,486.0,738.0,0.0,316.0,1
426,426,0.6941669936117771,0.7,0,288.0,517.0,0.0,375.0,1
427,427,-0.9535295678142977,-1.0,1,397.0,563.0,1.0,450.0,1
428,428,0.9555434781681365,1.0,0,379.0,787.0,0.0,684.0,1
429,429,0.12387716448488173,0.1,0,387.0,520.0,0.0,1223.0,1
430,430,-0.14931663943131968,-0.1,1,420.0,956.0,1.0,514.0,1
431,431,0.4366076715336964,0.4,0,355.0,890.0,0.0,2505.0,1
432,432,-0.7736712551242884,-0.8,1,375.0,589.0,1.0,226.0,1
433,433,0.47786653643206156,0.5,0,438.0,500.0,0.0,1552.0,1
434,434,-0.7333372394950943,-0.7,1,352.0,657.0,1.0,491.0,1
435,435,0.33320211227930385,0.3,0,308.0,878.0,1.0,674.0,0
436,436,0.6732921612167864,0.7,0,384.0,773.0,0.0,1753.0,1
437,437,-0.47774613391441845,-0.5,1,375.0,988.0,1.0,1777.0,1
438,438,0.07731417255255679,0.1,0,298.0,906.0,1.0,2076.0,0
439,439,-0.3193987859359786,-0.3,1,474.0,775.0,1.0,961.0,1
440,440,0.6185800121021692,0.6,0,444.0,698.0,0.0,838.0,1
441,441,-0.0810587616816929,-0.1,1,355.0,858.0,1.0,407.0,1
442,442,0.448075182945894,0.4,0,363.0,837.0,0.0,1200.0,1
443,443,0.8839884091580128,0.9,0,469.0,885.0,0.0,806.0,1
444,444,-0.8780999618154854,-0.9,1,391.0,802.0,1.0,907.0,1
445,445,0.13955823654969013,0.1,0,414.0,664.0,1.0,1702.0,0
446,446,0.5189147869595196,0.5,0,497.0,987.0,0.0,536.0,1
447,447,-0.06828188171060079,-0.1,1,422.0,620.0,0.0,918.0,0
448,448,-0.8129855119073319,-0.8,1,415.0,791.0,1.0,1104.0,1
449,449,-0.6962513354256257,-0.7,1,281.0,548.0,1.0,231.0,1
450,450,-0.710818953385634,-0.7,1,352.0,619.0,1.0,689.0,1
451,451,-0.5875791235575103,-0.6,1,276.0,951.0,1.0,973.0,1
452,452,-0.8820167181007059,-0.9,1,440.0,565.0,1.0,2725.0,1
453,453,0.17533579220407147,0.2,0,476.0,821.0,0.0,943.0,1
454,454,0.6645042803865062,0.7,0,361.0,918.0,0.0,421.0,1
455,455,0.4456335880617548,0.4,0,375.0,697.0,0.0,498.0,1
456,456,0.3554960053857692,0.4,0,326.0,932.0,0.0,702.0,1
457,457,-0.22858946217576315,-0.2,1,281.0,989.0,1.0,580.0,1
458,458,-0.6950762637009169,-0.7,1,277.0,723.0,1.0,500.0,1
459,459,-0.36700096512464375,-0.4,1,401.0,693.0,1.0,1066.0,1
460,460,-0.963426483789348,-1.0,1,384.0,859.0,1.0,297.0,1
461,461,0.24454041006186156,0.2,0,426.0,518.0,0.0,626.0,1
462,462,-0.7104724631571273,-0.7,1,461.0,847.0,1.0,682.0,1
463,463,0.8435647433543962,0.8,0,377.0,800.0,0.0,1613.0,1
464,464,0.8054414497132334,0.8,0,499.0,592.0,0.0,1389.0,1
465,465,0.5571960905710502,0.6,0,404.0,785.0,0.0,941.0,1
466,466,-0.609670460439242,-0.6,1,276.0,932.0,1.0,482.0,1
467,467,-0.7331130460916748,-0.7,1,386.0,671.0,1.0,1103.0,1
468,468,-0.22281920774983366,-0.2,1,495.0,973.0,1.0,942.0,1
469,469,0.08685620116185921,0.1,0,381.0,559.0,1.0,2070.0,0
470,470,-0.8983234520226537,-0.9,1,485.0,697.0,1.0,148.0,1
471,471,-0.6582884474138553,-0.7,1,466.0,631.0,1.0,423.0,1
472,472,0.5762152635754976,0.6,0,381.0,791.0,0.0,678.0,1
473,473,0.8650280093224005,0.9,0,379.0,716.0,0.0,695.0,1
474,474,0.1884053172380149,0.2,0,476.0,589.0,0.0,3795.0,1
475,475,0.6435973855357422,0.6,0,462.0,923.0,0.0,775.0,1
476,476,-0.9987246210269487,-1.0,1,470.0,861.0,1.0,739.0,1
477,477,0.1624874921320767,0.2,0,359.0,671.0,0.0,1250.0,1
478,478,-0.03715413331065087,-0.0,1,313.0,519.0,1.0,488.0,1
479,479,-0.21712394356397247,-0.2,1,465.0,574.0,1.0,2611.0,1
480,480,-0.4654170439816976,-0.5,1,390.0,923.0,1.0,1117.0,1
481,481,0.2733642135245855,0.3,0,317.0,827.0,0.0,796.0,1
482,482,-0.23570550356177034,-0.2,1,466.0,928.0,1.0,1426.0,1
483,483,-0.6256903456096452,-0.6,1,407.0,844.0,1.0,1409.0,1
484,484,-0.6449027477611968,-0.6,1,400.0,981.0,1.0,459.0,1
485,485,0.20358263349665595,0.2,0,287.0,881.0,0.0,302.0,1
486,486,-0.8437729747968188,-0.8,1,419.0,554.0,1.0,247.0,1
487,487,0.8355259708225944,0.8,0,419.0,842.0,0.0,609.0,1
488,488,0.8120671477246524,0.8,0,340.0,690.0,0.0,770.0,1
489,489,-0.29910990891133693,-0.3,1,485.0,893.0,1.0,2002.0,1
490,490,0.4697575869070856,0.5,0,440.0,899.0,0.0,1951.0,1
491,491,-0.3871593485327527,-0.4,1,425.0,618.0,1.0,527.0,1
492,492,0.7790698511591598,0.8,0,319.0,552.0,0.0,279.0,1
493,493,0.5463640171122355,0.5,0,380.0,857.0,0.0,533.0,1
494,494,-0.08204671525589502,-0.1,1,323.0,566.0,0.0,2141.0,0
495,495,0.9961401637784038,1.0,0,489.0,995.0,0.0,676.0,1
496,496,0.9615533832833016,1.0,0,367.0,574.0,0.0,269.0,1
497,497,-0.7187156425942967,-0.7,1,386.0,626.0,1.0,548.0,1
498,498,0.8290131448903257,0.8,0,296.0,515.0,0.0,569.0,1
499,499,0.830321807926367,0.8,0,328.0,997.0,0.0,985.0,1
500,500,-0.10927092078137801,-0.1,1,383.0,832.0,0.0,1215.0,0
501,501,0.586500743710253,0.6,0,468.0,611.0,0.0,361.0,1
502,502,0.5283236503568207,0.5,0,270.0,562.0,0.0,318.0,1
503,503,-0.36000308703149875,-0.4,1,381.0,774.0,1.0,395.0,1
504,504,0.9010332361466427,0.9,0,453.0,848.0,0.0,1289.0,1
505,505,-0.5241502920702354,-0.5,1,490.0,701.0,1.0,429.0,1
506,506,-0.2145965235734819,-0.2,1,411.0,750.0,1.0,589.0,1
507,507,-0.9151644037492437,-0.9,1,442.0,782.0,1.0,196.0,1
508,508,0.36695581291168655,0.4,0,433.0,593.0,0.0,324.0,1
509,509,0.8484180957535281,0.8,0,390.0,593.0,0.0,857.0,1
510,510,-0.7340247021542314,-0.7,1,449.0,710.0,1.0,121.0,1
511,511,0.0831046263788291,0.1,0,390.0,506.0,0.0,1594.0,1
512,512,0.08454166876035507,0.1,0,430.0,509.0,1.0,3351.0,0
513,513,-0.06815008230369513,-0.1,1,425.0,735.0,1.0,1400.0,1
514,514,0.2199262071238388,0.2,0,299.0,921.0,0.0,780.0,1
515,515,-0.04937197098946755,-0.0,1,457.0,597.0,1.0,386.0,1
516,516,-0.7707258569703779,-0.8,1,319.0,525.0,1.0,856.0,1
517,517,0.11172308917236906,0.1,0,495.0,523.0,0.0,2142.0,1
518,518,-0.22201337099047525,-0.2,1,315.0,716.0,1.0,269.0,1
519,519,-0.5864281773242284,-0.6,1,418.0,552.0,1.0,1200.0,1
520,520,-0.3057462068937695,-0.3,1,350.0,847.0,1.0,2133.0,1
521,521,-0.039577535100343564,-0.0,1,313.0,717.0,1.0,1890.0,1
522,522,-0.13524931356397163,-0.1,1,290.0,845.0,1.0,1805.0,1
523,523,0.36378671735108403,0.4,0,494.0,947.0,0.0,1729.0,1
524,524,0.5359145893278712,0.5,0,418.0,675.0,0.0,627.0,1
525,525,0.16357477882354954,0.2,0,498.0,530.0,0.0,1182.0,1
526,526,0.8163611554677443,0.8,0,351.0,853.0,0.0,836.0,1
527,527,0.2785528391943266,0.3,0,479.0,636.0,0.0,685.0,1
528,528,-0.8866737919509007,-0.9,1,445.0,844.0,1.0,361.0,1
529,529,0.7362370033982188,0.7,0,413.0,813.0,0.0,494.0,1
530,530,0.074148409329442,0.1,0,333.0,722.0,1.0,1395.0,0
531,531,0.3994174196848719,0.4,0,355.0,989.0,0.0,996.0,1
532,532,-0.753341598678072,-0.8,1,427.0,666.0,1.0,557.0,1
533,533,0.6645419492198295,0.7,0,393.0,902.0,0.0,365.0,1
534,534,0.19822167662699886,0.2,0,482.0,782.0,1.0,1156.0,0
535,535,-0.38765461231572296,-0.4,1,326.0,747.0,1.0,517.0,1
536,536,-0.11350227790705758,-0.1,1,324.0,779.0,1.0,457.0,1
537,537,-0.061279628782717754,-0.1,1,342.0,737.0,1.0,391.0,1
538,538,-0.47095515720805103,-0.5,1,397.0,882.0,1.0,781.0,1
539,539,-0.9079444542931223,-0.9,1,381.0,681.0,1.0,298.0,1
540,540,0.7695049652523778,0.8,0,368.0,996.0,0.0,766.0,1
541,541,0.03085285687100936,0.0,0,349.0,896.0,0.0,555.0,1
542,542,0.8699231980151412,0.9,0,433.0,947.0,0.0,2160.0,1
543,543,0.961907790432019,1.0,0,402.0,965.0,0.0,753.0,1
544,544,0.9021348832213771,0.9,0,479.0,833.0,0.0,588.0,1
545,545,-0.4828907218472456,-0.5,1,257.0,807.0,0.0,746.0,0
546,546,0.18771059317031513,0.2,0,302.0,992.0,1.0,1886.0,0
547,547,-0.5945059086226154,-0.6,1,299.0,942.0,1.0,329.0,1
548,548,-0.33173132984091946,-0.3,1,319.0,781.0,1.0,490.0,1
549,549,-0.841340036576206,-0.8,1,470.0,988.0,1.0,542.0,1
550,550,-0.6041962548228965,-0.6,1,480.0,955.0,1.0,1345.0,1
551,551,0.08083585632615087,0.1,0,289.0,542.0,0.0,2849.0,1
552,552,-0.522940710897384,-0.5,1,271.0,516.0,1.0,583.0,1
553,553,0.5595295195149448,0.6,0,380.0,610.0,0.0,750.0,1
554,554,-0.7576486036868733,-0.8,1,487.0,650.0,1.0,673.0,1
555,555,0.980125894468685,1.0,0,348.0,538.0,0.0,254.0,1
556,556,-0.31263739746703,-0.3,1,362.0,989.0,1.0,469.0,1
557,557,-0.012180292845985319,-0.0,1,279.0,504.0,0.0,1087.0,0
558,558,-0.8972244234020565,-0.9,1,295.0,757.0,1.0,668.0,1
559,559,-0.0945819743233014,-0.1,1,460.0,927.0,1.0,3613.0,1
560,560,0.8796270920881124,0.9,0,265.0,578.0,0.0,327.0,1
561,561,-0.6387179288464095,-0.6,1,469.0,757.0,1.0,744.0,1
562,562,0.8849023608600828,0.9,0,491.0,716.0,0.0,263.0,1
563,563,-0.6610669597198722,-0.7,1,410.0,980.0,1.0,270.0,1
564,564,-0.21700740553137687,-0.2,1,486.0,739.0,1.0,735.0,1
565,565,-0.42979638342881943,-0.4,1,406.0,740.0,1.0,504.0,1
566,566,-0.18278716045394816,-0.2,1,278.0,856.0,1.0,976.0,1
567,567,-0.5759764135349319,-0.6,1,346.0,539.0,1.0,555.0,1
568,568,0.7777176605797322,0.8,0,254.0,997.0,0.0,859.0,1
569,569,0.40107098066271174,0.4,0,377.0,705.0,0.0,1468.0,1
570,570,-0.5661712931829592,-0.6,1,305.0,604.0,1.0,481.0,1
571,571,0.8883099730544641,0.9,0,339.0,625.0,0.0,286.0,1
572,572,0.33602751340573045,0.3,0,356.0,501.0,0.0,523.0,1
573,573,-0.6318760827590277,-0.6,1,278.0,625.0,1.0,507.0,1
574,574,0.6729619063956176,0.7,0,331.0,907.0,0.0,572.0,1
575,575,-0.6969689010943871,-0.7,1,352.0,592.0,1.0,386.0,1
576,576,-0.5063316361412589,-0.5,1,426.0,577.0,1.0,2337.0,1
577,577,0.07555395870106496,0.1,0,498.0,680.0,0.0,1142.0,1
578,578,0.3055174024937579,0.3,0,392.0,517.0,0.0,1111.0,1
579,579,-0.39312285793322244,-0.4,1,472.0,838.0,0.0,1030.0,0
580,580,-0.5401968640156554,-0.5,1,404.0,826.0,1.0,400.0,1
581,581,0.4994034720151759,0.5,0,324.0,683.0,0.0,633.0,1
582,582,-0.5743052664972836,-0.6,1,370.0,689.0,1.0,451.0,1
583,583,-0.8615502585687904,-0.9,1,454.0,527.0,1.0,459.0,1
584,584,0.23352023035257718,0.2,0,310.0,946.0,0.0,344.0,1
585,585,-0.22819284675710527,-0.2,1,445.0,958.0,1.0,977.0,1
586,586,0.683121966130535,0.7,0,349.0,545.0,0.0,1006.0,1
587,587,0.4954028931861887,0.5,0,335.0,931.0,0.0,294.0,1
588,588,0.08934459649693993,0.1,0,359.0,541.0,1.0,2090.0,0
589,589,-0.2822873512621009,-0.3,1,343.0,689.0,1.0,1188.0,1
590,590,-0.8057358332322244,-0.8,1,346.0,889.0,1.0,925.0,1
591,591,0.49477087486285276,0.5,0,303.0,840.0,0.0,357.0,1
592,592,-0.022728171619878168,-0.0,1,367.0,520.0,0.0,893.0,0
593,593,0.17400713837780457,0.2,0,324.0,538.0,0.0,678.0,1
594,594,-0.18055589120363935,-0.2,1,394.0,855.0,1.0,221.0,1
595,595,-0.47597484164916026,-0.5,1,499.0,756.0,1.0,555.0,1
596,596,-0.851098844985166,-0.9,1,260.0,551.0,1.0,419.0,1
597,597,0.2826997444882793,0.3,0,259.0,648.0,0.0,623.0,1
598,598,0.1322008779434427,0.1,0,309.0,958.0,1.0,1263.0,0
599,599,0.41354307660850353,0.4,0,344.0,814.0,0.0,702.0,1
600,600,0.7446321140651495,0.7,0,307.0,609.0,0.0,1054.0,1
601,601,0.17377297109376233,0.2,0,427.0,941.0,0.0,302.0,1
602,602,0.3167627865808682,0.3,0,432.0,547.0,0.0,991.0,1
603,603,0.4602739020167419,0.5,0,495.0,908.0,0.0,857.0,1
604,604,0.38592703956889407,0.4,0,439.0,827.0,0.0,1364.0,1
605,605,0.9819307858502015,1.0,0,267.0,994.0,0.0,509.0,1
606,606,0.13557246710517123,0.1,0,474.0,542.0,0.0,424.0,1
607,607,0.11391805794240684,0.1,0,489.0,988.0,1.0,1543.0,0
608,608,-0.4943387929260423,-0.5,1,394.0,897.0,1.0,999.0,1
609,609,0.703534519204462,0.7,0,330.0,801.0,0.0,359.0,1
610,610,-0.798029726744641,-0.8,1,407.0,972.0,1.0,361.0,1
611,611,-0.4427154577488577,-0.4,1,327.0,813.0,1.0,510.0,1
612,612,0.6549567286301212,0.7,0,253.0,768.0,0.0,289.0,1
613,613,0.0618922031671032,0.1,0,261.0,828.0,1.0,321.0,0
614,614,-0.7146804997569272,-0.7,1,470.0,743.0,1.0,807.0,1
615,615,-0.6222697027652231,-0.6,1,472.0,819.0,1.0,519.0,1
616,616,-0.17844114452829518,-0.2,1,412.0,908.0,1.0,300.0,1
617,617,-0.5251231903210951,-0.5,1,292.0,595.0,1.0,303.0,1
618,618,-0.3254472413402192,-0.3,1,274.0,517.0,1.0,959.0,1
619,619,0.7740629976880331,0.8,0,424.0,544.0,0.0,302.0,1
620,620,0.2110013799821493,0.2,0,464.0,909.0,0.0,1757.0,1
621,621,-0.5435483795142384,-0.5,1,250.0,890.0,1.0,470.0,1
622,622,0.17949327105738555,0.2,0,489.0,868.0,0.0,2243.0,1
623,623,0.23702533622644006,0.2,0,419.0,530.0,0.0,451.0,1
624,624,0.7626145343228385,0.8,0,317.0,601.0,0.0,1012.0,1
625,625,0.8424623785469008,0.8,0,453.0,728.0,0.0,279.0,1
626,626,-0.4998740376303805,-0.5,1,450.0,521.0,1.0,549.0,1
627,627,0.3428487619574412,0.3,0,395.0,843.0,0.0,1532.0,1
628,628,0.527548551745413,0.5,0,470.0,576.0,0.0,504.0,1
629,629,-0.6096800007181877,-0.6,1,322.0,766.0,1.0,452.0,1
630,630,-0.8344952386234523,-0.8,1,259.0,828.0,1.0,693.0,1
631,631,0.9958965074075599,1.0,0,486.0,628.0,0.0,716.0,1
632,632,0.9970120387404748,1.0,0,471.0,905.0,0.0,424.0,1
633,633,0.9064448386689066,0.9,0,351.0,868.0,0.0,1611.0,1
634,634,-0.0745440536691131,-0.1,1,338.0,845.0,1.0,1677.0,1
635,635,-0.41421174222448376,-0.4,1,465.0,555.0,1.0,2440.0,1
636,636,0.6714660576576175,0.7,0,395.0,709.0,0.0,686.0,1
637,637,0.07224465544263925,0.1,0,301.0,933.0,0.0,1386.0,1
638,638,0.29953027216677897,0.3,0,424.0,856.0,0.0,2370.0,1
639,639,0.6326895304615818,0.6,0,409.0,933.0,0.0,1008.0,1
640,640,0.951189207307086,1.0,0,339.0,639.0,0.0,752.0,1
641,641,0.6084552681724218,0.6,0,283.0,716.0,0.0,1591.0,1
642,642,0.8624004109916641,0.9,0,468.0,943.0,0.0,999.0,1
643,643,0.24925538008306924,0.2,0,297.0,559.0,1.0,2444.0,0
644,644,0.8994425739002574,0.9,0,435.0,671.0,0.0,744.0,1
645,645,-0.3503546022404891,-0.4,1,375.0,749.0,0.0,486.0,0
646,646,-0.14899129624717133,-0.1,1,367.0,980.0,1.0,1083.0,1
647,647,-0.6058613537324804,-0.6,1,488.0,807.0,1.0,875.0,1
648,648,0.9870402888000374,1.0,0,389.0,743.0,0.0,598.0,1
649,649,0.32426789139256607,0.3,0,417.0,999.0,0.0,1014.0,1
650,650,-0.8648170463664204,-0.9,1,473.0,804.0,1.0,473.0,1
651,651,-0.622199389268874,-0.6,1,303.0,621.0,1.0,586.0,1
652,652,-0.7332292048382596,-0.7,1,436.0,644.0,1.0,310.0,1
653,653,0.7089549579862848,0.7,0,433.0,932.0,0.0,325.0,1
654,654,-0.6979577809799484,-0.7,1,279.0,543.0,1.0,898.0,1
655,655,-0.7941361579836272,-0.8,1,293.0,617.0,1.0,550.0,1
656,656,0.8961550120798587,0.9,0,386.0,942.0,0.0,502.0,1
657,657,-0.9043936128685937,-0.9,1,379.0,738.0,1.0,643.0,1
658,658,-0.8205952331172961,-0.8,1,429.0,624.0,1.0,617.0,1
659,659,0.3377363511166931,0.3,0,274.0,917.0,0.0,1089.0,1
660,660,0.3212979841126613,0.3,0,301.0,567.0,0.0,462.0,1
661,661,0.5472594554749837,0.5,0,450.0,712.0,0.0,1158.0,1
662,662,-0.7469960594288383,-0.7,1,392.0,685.0,1.0,2053.0,1
663,663,-0.3238085915496409,-0.3,1,485.0,912.0,0.0,2143.0,0
664,664,0.6799266304987817,0.7,0,275.0,773.0,0.0,852.0,1
665,665,-0.8008422016263568,-0.8,1,466.0,712.0,1.0,1462.0,1
666,666,0.15090699216145298,0.2,0,470.0,824.0,0.0,606.0,1
667,667,-0.6005847257996431,-0.6,1,379.0,714.0,1.0,337.0,1
668,668,-0.38117257849999264,-0.4,1,428.0,744.0,1.0,1238.0,1
669,669,0.4873923278025325,0.5,0,451.0,826.0,0.0,923.0,1
670,670,0.0809080491143761,0.1,0,487.0,646.0,0.0,1917.0,1
671,671,-0.08463921611364311,-0.1,1,310.0,977.0,1.0,773.0,1
672,672,-0.3743045900545354,-0.4,1,399.0,770.0,1.0,651.0,1
673,673,-0.37821527093042007,-0.4,1,335.0,591.0,1.0,724.0,1
674,674,0.035019786529912666,0.0,0,277.0,536.0,0.0,1567.0,1
675,675,0.25999689251618907,0.3,0,282.0,575.0,0.0,1153.0,1
676,676,-0.7707128419014355,-0.8,1,489.0,751.0,1.0,730.0,1
677,677,0.5762505059653487,0.6,0,297.0,734.0,0.0,519.0,1
678,678,-0.0022030134481563213,-0.0,1,291.0,685.0,1.0,834.0,1
679,679,-0.31320942779003147,-0.3,1,278.0,540.0,0.0,822.0,0
680,680,-0.24764928296623911,-0.2,1,380.0,954.0,1.0,236.0,1
681,681,-0.4251398164809499,-0.4,1,289.0,623.0,1.0,728.0,1
682,682,-0.851129391874285,-0.9,1,305.0,514.0,1.0,681.0,1
683,683,0.510863540738316,0.5,0,370.0,970.0,0.0,220.0,1
684,684,-0.2359781369932683,-0.2,1,459.0,531.0,1.0,1360.0,1
685,685,0.5503057815819106,0.6,0,466.0,603.0,0.0,791.0,1
686,686,0.5955927626687523,0.6,0,326.0,646.0,0.0,578.0,1
687,687,-0.5404726155367503,-0.5,1,434.0,609.0,1.0,837.0,1
688,688,-0.9687706509979903,-1.0,1,384.0,936.0,1.0,320.0,1
689,689,-0.6424212740783242,-0.6,1,423.0,612.0,1.0,305.0,1
690,690,0.17999493614766537,0.2,0,360.0,915.0,0.0,475.0,1
691,691,0.7175783241669809,0.7,0,483.0,651.0,0.0,536.0,1
692,692,0.19931903451783817,0.2,0,270.0,607.0,1.0,553.0,0
693,693,0.2874450965940698,0.3,0,449.0,841.0,1.0,3710.0,0
694,694,-0.586242211339477,-0.6,1,258.0,981.0,1.0,821.0,1
695,695,-0.3036413645364153,-0.3,1,351.0,778.0,1.0,911.0,1
696,696,-0.8131790315862677,-0.8,1,369.0,667.0,1.0,434.0,1
697,697,0.7818586668674941,0.8,0,337.0,975.0,0.0,238.0,1
698,698,0.20593533236349204,0.2,0,421.0,701.0,0.0,278.0,1
699,699,-0.11012579746603723,-0.1,1,254.0,736.0,1.0,2420.0,1
700,700,0.827109066963907,0.8,0,261.0,983.0,0.0,846.0,1
701,701,0.25915750248158287,0.3,0,377.0,891.0,0.0,452.0,1
702,702,0.12371717154878081,0.1,0,280.0,648.0,0.0,3132.0,1
703,703,0.28576051716894346,0.3,0,388.0,707.0,0.0,855.0,1
704,704,-0.2912115305806271,-0.3,1,451.0,504.0,1.0,635.0,1
705,705,0.5535086870551713,0.6,0,464.0,622.0,0.0,484.0,1
706,706,0.684731054265433,0.7,0,333.0,906.0,0.0,1131.0,1
707,707,0.7300270004242995,0.7,0,283.0,610.0,0.0,477.0,1
708,708,0.22311765949906692,0.2,0,301.0,815.0,1.0,1904.0,0
709,709,0.5104424880207643,0.5,0,308.0,547.0,0.0,1175.0,1
710,710,-0.3682561580393442,-0.4,1,324.0,782.0,1.0,1284.0,1
711,711,-0.965526934906884,-1.0,1,265.0,652.0,1.0,693.0,1
712,712,-0.6013932766536434,-0.6,1,416.0,608.0,1.0,1086.0,1
713,713,-0.9595355707476814,-1.0,1,416.0,856.0,1.0,398.0,1
714,714,-0.9241158793905035,-0.9,1,438.0,963.0,1.0,289.0,1
715,715,0.639927127439913,0.6,0,493.0,855.0,0.0,482.0,1
716,716,-0.6481940156232082,-0.6,1,268.0,692.0,1.0,1430.0,1
717,717,-0.7166966648152795,-0.7,1,478.0,657.0,1.0,495.0,1
718,718,-0.17423900430531414,-0.2,1,273.0,665.0,0.0,512.0,0
719,719,0.28319569802241973,0.3,0,372.0,835.0,0.0,743.0,1
720,720,0.8122355178041327,0.8,0,334.0,816.0,0.0,280.0,1
721,721,-0.37718961270112517,-0.4,1,488.0,556.0,1.0,756.0,1
722,722,0.07310427507769646,0.1,0,425.0,834.0,0.0,1091.0,1
723,723,-0.06310815945445869,-0.1,1,386.0,647.0,1.0,967.0,1
724,724,0.11055326914454366,0.1,0,451.0,681.0,0.0,3148.0,1
725,725,-0.8414537089064202,-0.8,1,481.0,816.0,1.0,1003.0,1
726,726,0.0460205299733103,0.0,0,316.0,793.0,1.0,1581.0,0
727,727,0.4382432051550085,0.4,0,355.0,967.0,0.0,1278.0,1
728,728,-0.06976450786165178,-0.1,1,341.0,795.0,1.0,3194.0,1
729,729,-0.4329251802308174,-0.4,1,308.0,887.0,1.0,415.0,1
730,730,-0.2805459944283515,-0.3,1,476.0,886.0,1.0,618.0,1
731,731,-0.2669522832433886,-0.3,1,279.0,962.0,1.0,1359.0,1
732,732,0.8839149079012034,0.9,0,440.0,562.0,0.0,348.0,1
733,733,0.5020241845933817,0.5,0,336.0,681.0,0.0,923.0,1
734,734,-0.3601928324808512,-0.4,1,266.0,612.0,1.0,472.0,1
735,735,-0.5164371857667998,-0.5,1,365.0,702.0,1.0,913.0,1
736,736,-0.9611903804158455,-1.0,1,430.0,824.0,1.0,946.0,1
737,737,-0.8760396216917905,-0.9,1,266.0,744.0,1.0,210.0,1
738,738,-0.17060784419990727,-0.2,1,302.0,638.0,1.0,410.0,1
739,739,-0.8552813602477081,-0.9,1,494.0,717.0,1.0,339.0,1
740,740,0.7113575062809221,0.7,0,303.0,667.0,0.0,390.0,1
741,741,0.24158940878823487,0.2,0,381.0,957.0,0.0,802.0,1
742,742,-0.3356602255616459,-0.3,1,268.0,672.0,1.0,440.0,1
743,743,0.654506408994264,0.7,0,304.0,750.0,0.0,526.0,1
744,744,-0.27973907780271534,-0.3,1,261.0,536.0,1.0,363.0,1
745,745,0.6212534661493425,0.6,0,405.0,990.0,0.0,275.0,1
746,746,-0.023262676732369147,-0.0,1,484.0,956.0,0.0,1680.0,0
747,747,0.005923484993944017,0.0,0,294.0,939.0,1.0,1667.0,0
748,748,-0.03319507204901684,-0.0,1,328.0,934.0,1.0,688.0,1
749,749,-0.9747392639557675,-1.0,1,383.0,737.0,1.0,340.0,1
750,750,-0.46706812206313075,-0.5,1,334.0,692.0,1.0,1714.0,1
751,751,-0.1992713349249675,-0.2,1,268.0,995.0,0.0,407.0,0
752,752,0.9358095026331716,0.9,0,494.0,715.0,0.0,621.0,1
753,753,-0.9787229660305552,-1.0,1,298.0,901.0,1.0,381.0,1
754,754,0.9487526626289924,0.9,0,487.0,658.0,0.0,625.0,1
755,755,0.40772045758871744,0.4,0,326.0,647.0,0.0,1037.0,1
756,756,0.33726094482547153,0.3,0,408.0,772.0,0.0,250.0,1
757,757,0.7488146294261344,0.7,0,345.0,915.0,0.0,540.0,1
758,758,0.5169798547180033,0.5,0,367.0,934.0,0.0,689.0,1
759,759,-0.23193810006200555,-0.2,1,303.0,660.0,1.0,1097.0,1
760,760,-0.7567662994796716,-0.8,1,405.0,580.0,1.0,485.0,1
761,761,-0.5115286425148697,-0.5,1,365.0,635.0,1.0,230.0,1
762,762,-0.526714086500895,-0.5,1,353.0,949.0,1.0,238.0,1
763,763,0.36842509975695514,0.4,0,283.0,936.0,0.0,1221.0,1
764,764,-0.5370115053922861,-0.5,1,454.0,761.0,1.0,815.0,1
765,765,-0.8649007350657956,-0.9,1,355.0,946.0,1.0,549.0,1
766,766,-0.4161594531056221,-0.4,1,317.0,901.0,1.0,782.0,1
767,767,-0.11919003797250993,-0.1,1,327.0,785.0,1.0,1018.0,1
768,768,-0.10465379830132093,-0.1,1,321.0,877.0,1.0,632.0,1
769,769,0.8926585203726198,0.9,0,422.0,987.0,0.0,851.0,1
770,770,-0.5337747317669441,-0.5,1,463.0,874.0,1.0,1143.0,1
771,771,0.1361823710682326,0.1,0,405.0,511.0,1.0,284.0,0
772,772,0.4624405319708893,0.5,0,378.0,591.0,0.0,321.0,1
773,773,-0.9169294242527939,-0.9,1,289.0,799.0,1.0,422.0,1
774,774,0.9905599904498179,1.0,0,301.0,535.0,0.0,1254.0,1
775,775,-0.9360373688348722,-0.9,1,318.0,728.0,1.0,884.0,1
776,776,-0.40233187583811847,-0.4,1,264.0,678.0,1.0,428.0,1
777,777,0.07057221543531833,0.1,0,434.0,643.0,0.0,493.0,1
778,778,0.9027211377253681,0.9,0,481.0,776.0,0.0,273.0,1
779,779,-0.5534852047727907,-0.6,1,317.0,639.0,1.0,814.0,1
780,780,0.11491078680536848,0.1,0,466.0,650.0,1.0,3884.0,0
781,781,-0.27448341343012084,-0.3,1,301.0,532.0,1.0,427.0,1
782,782,0.995649176234987,1.0,0,347.0,614.0,0.0,329.0,1
783,783,0.10106603823350468,0.1,0,303.0,866.0,0.0,2381.0,1
784,784,0.5243623938763353,0.5,0,476.0,758.0,0.0,426.0,1
785,785,-0.03506848511828986,-0.0,1,367.0,732.0,0.0,891.0,0
786,786,-0.46696620535977673,-0.5,1,355.0,608.0,1.0,1127.0,1
787,787,-0.4472466846300782,-0.4,1,333.0,765.0,1.0,3012.0,1
788,788,-0.6137929265018303,-0.6,1,339.0,794.0,1.0,417.0,1
789,789,0.2024467086385684,0.2,0,467.0,862.0,0.0,141.0,1
790,790,-0.5726962794755326,-0.6,1,277.0,558.0,1.0,1255.0,1
791,791,-0.7991605886952395,-0.8,1,272.0,826.0,1.0,802.0,1
792,792,0.39966358299173055,0.4,0,286.0,892.0,0.0,702.0,1
793,793,-0.09807944487126519,-0.1,1,384.0,925.0,1.0,2231.0,1
794,794,-0.7026850873999868,-0.7,1,352.0,941.0,1.0,347.0,1
795,795,-0.14049437117114505,-0.1,1,329.0,981.0,1.0,1450.0,1
796,796,-0.8238096834849935,-0.8,1,357.0,861.0,1.0,1082.0,1
797,797,-0.517800754957936,-0.5,1,321.0,770.0,1.0,1379.0,1
798,798,-0.7281454150889071,-0.7,1,372.0,942.0,1.0,466.0,1
799,799,0.5250467467428526,0.5,0,360.0,822.0,0.0,478.0,1
800,800,-0.8733923104083363,-0.9,1,284.0,697.0,1.0,829.0,1
801,801,0.19321503057357514,0.2,0,269.0,519.0,1.0,922.0,0
802,802,-0.8678182010444961,-0.9,1,269.0,566.0,1.0,625.0,1
803,803,-0.16148958886148224,-0.2,1,414.0,977.0,1.0,3149.0,1
804,804,-0.111758686478451,-0.1,1,472.0,959.0,0.0,379.0,0
805,805,-0.2086802276305293,-0.2,1,497.0,817.0,0.0,1516.0,0
806,806,0.4009650664784836,0.4,0,376.0,827.0,0.0,1547.0,1
807,807,-0.026316970037405074,-0.0,1,264.0,613.0,1.0,1083.0,1
808,808,-0.4702443652061412,-0.5,1,498.0,546.0,1.0,916.0,1
809,809,0.4396774388413689,0.4,0,447.0,795.0,0.0,238.0,1
810,810,0.23287448962853952,0.2,0,303.0,879.0,1.0,378.0,0
811,811,0.4006694310575778,0.4,0,405.0,766.0,0.0,609.0,1
812,812,-0.5645689682558561,-0.6,1,311.0,573.0,1.0,806.0,1
813,813,0.5191398168245203,0.5,0,485.0,713.0,0.0,242.0,1
814,814,-0.07348374709536176,-0.1,1,466.0,893.0,1.0,1981.0,1
815,815,0.03260312392713005,0.0,0,306.0,895.0,1.0,1459.0,0
816,816,0.06270341628437248,0.1,0,290.0,946.0,1.0,524.0,0
817,817,-0.721530401159894,-0.7,1,302.0,923.0,1.0,605.0,1
818,818,-0.9501192612366516,-1.0,1,369.0,709.0,1.0,542.0,1
819,819,0.7657824526916199,0.8,0,446.0,949.0,0.0,835.0,1
820,820,-0.09635568888897361,-0.1,1,355.0,502.0,0.0,1443.0,0
821,821,-0.5370529015721728,-0.5,1,289.0,949.0,1.0,592.0,1
822,822,-0.8594431140670218,-0.9,1,469.0,600.0,1.0,381.0,1
823,823,0.789975490826039,0.8,0,263.0,552.0,0.0,785.0,1
824,824,-0.16133568461346326,-0.2,1,317.0,980.0,0.0,703.0,0
825,825,0.5054540224394501,0.5,0,413.0,633.0,0.0,1204.0,1
826,826,0.007773665775813621,0.0,0,310.0,655.0,1.0,1255.0,0
827,827,0.41579910036136103,0.4,0,392.0,807.0,0.0,431.0,1
828,828,-0.21482033222170993,-0.2,1,399.0,837.0,0.0,374.0,0
829,829,0.24382577717936194,0.2,0,466.0,847.0,0.0,907.0,1
830,830,-0.09661648032420955,-0.1,1,468.0,887.0,1.0,1315.0,1
831,831,-0.8479643641253103,-0.8,1,497.0,530.0,1.0,463.0,1
832,832,-0.9407138956723924,-0.9,1,420.0,697.0,1.0,263.0,1
833,833,-0.9710230112372693,-1.0,1,274.0,902.0,1.0,1254.0,1
834,834,-0.17745079788799778,-0.2,1,406.0,742.0,1.0,1532.0,1
835,835,0.8830960213977048,0.9,0,355.0,945.0,0.0,410.0,1
836,836,-0.9811207062760852,-1.0,1,270.0,841.0,1.0,209.0,1
837,837,0.7267023733204983,0.7,0,356.0,611.0,0.0,283.0,1
838,838,0.8235652234134268,0.8,0,416.0,894.0,0.0,260.0,1
839,839,-0.42858341332189576,-0.4,1,467.0,558.0,1.0,1045.0,1
840,840,0.595663701966546,0.6,0,321.0,797.0,0.0,542.0,1
841,841,0.4249941818341536,0.4,0,282.0,676.0,0.0,462.0,1
842,842,-0.47928320746491226,-0.5,1,496.0,738.0,1.0,486.0,1
843,843,-0.9573588778305886,-1.0,1,321.0,702.0,1.0,187.0,1
844,844,-0.6460187127727783,-0.6,1,448.0,668.0,1.0,214.0,1
845,845,-0.570497720876961,-0.6,1,488.0,752.0,1.0,770.0,1
846,846,-0.5660850504985973,-0.6,1,346.0,723.0,1.0,1041.0,1
847,847,0.9962814578388275,1.0,0,251.0,541.0,0.0,348.0,1
848,848,-0.9879362865166701,-1.0,1,359.0,661.0,1.0,470.0,1
849,849,-0.9486408205681975,-0.9,1,432.0,821.0,1.0,167.0,1
850,850,0.7218073351420087,0.7,0,254.0,884.0,0.0,672.0,1
851,851,-0.20611240097278927,-0.2,1,383.0,960.0,1.0,577.0,1
852,852,-0.11310212847382073,-0.1,1,435.0,680.0,1.0,685.0,1
853,853,-0.1542796328177949,-0.2,1,371.0,826.0,1.0,763.0,1
854,854,-0.14795084549256532,-0.1,1,489.0,588.0,1.0,1343.0,1
855,855,0.8689197210629274,0.9,0,482.0,913.0,0.0,245.0,1
856,856,0.4990580490041385,0.5,0,356.0,593.0,0.0,211.0,1
857,857,0.061976489021856596,0.1,0,466.0,502.0,1.0,1032.0,0
858,858,0.7778362553034579,0.8,0,493.0,697.0,0.0,330.0,1
859,859,0.27515719342870626,0.3,0,409.0,638.0,0.0,3833.0,1
860,860,-0.4935013446410066,-0.5,1,438.0,582.0,1.0,1440.0,1
861,861,-0.29679568843553517,-0.3,1,481.0,849.0,1.0,550.0,1
862,862,0.046307316616412075,0.0,0,282.0,502.0,0.0,1816.0,1
863,863,0.5187624717177062,0.5,0,460.0,516.0,0.0,494.0,1
864,864,0.3042692598151311,0.3,0,348.0,866.0,0.0,1446.0,1
865,865,0.8882163346518601,0.9,0,423.0,964.0,0.0,963.0,1
866,866,0.3331428367607736,0.3,0,317.0,765.0,0.0,488.0,1
867,867,0.893637338844838,0.9,0,285.0,851.0,0.0,344.0,1
868,868,-0.12529938615748382,-0.1,1,261.0,815.0,1.0,2944.0,1
869,869,-0.22572326562435752,-0.2,1,477.0,966.0,1.0,1557.0,1
870,870,-0.3775901486644284,-0.4,1,340.0,874.0,1.0,516.0,1
871,871,0.07932642844788762,0.1,0,263.0,666.0,0.0,1311.0,1
872,872,0.7067947689428027,0.7,0,334.0,938.0,0.0,1208.0,1
873,873,-0.2472250593862222,-0.2,1,469.0,772.0,1.0,1999.0,1
874,874,-0.7872479603370695,-0.8,1,430.0,675.0,1.0,565.0,1
875,875,-0.220701307930532,-0.2,1,301.0,954.0,1.0,225.0,1
876,876,-0.6327509497863149,-0.6,1,316.0,802.0,1.0,922.0,1
877,877,0.12473191493788849,0.1,0,406.0,711.0,0.0,843.0,1
878,878,-0.13947070748769308,-0.1,1,406.0,898.0,0.0,1166.0,0
879,879,-0.6372105787782474,-0.6,1,251.0,603.0,1.0,466.0,1
880,880,-0.6124134469059086,-0.6,1,491.0,794.0,1.0,425.0,1
881,881,0.37118063288480063,0.4,0,277.0,838.0,0.0,2245.0,1
882,882,0.5935518739190242,0.6,0,476.0,954.0,0.0,750.0,1
883,883,-0.8290018443036113,-0.8,1,296.0,872.0,1.0,282.0,1
884,884,-0.5257093614017208,-0.5,1,369.0,530.0,1.0,501.0,1
885,885,0.6622954252461881,0.7,0,498.0,532.0,0.0,290.0,1
886,886,0.9799217835479297,1.0,0,456.0,752.0,0.0,172.0,1
887,887,0.7118193391554557,0.7,0,387.0,521.0,0.0,192.0,1
888,888,0.5036126199535569,0.5,0,458.0,835.0,0.0,407.0,1
889,889,-0.7012896524115966,-0.7,1,395.0,967.0,1.0,2178.0,1
890,890,0.6234206763180883,0.6,0,393.0,557.0,0.0,920.0,1
891,891,0.9090007785805265,0.9,0,266.0,506.0,0.0,338.0,1
892,892,-0.38476419914570803,-0.4,1,336.0,799.0,1.0,1085.0,1
893,893,-0.5944239252269081,-0.6,1,411.0,906.0,1.0,1693.0,1
894,894,0.11591554350168698,0.1,0,390.0,668.0,0.0,1492.0,1
895,895,0.07497394903232268,0.1,0,414.0,923.0,0.0,2383.0,1
896,896,0.5552668240007073,0.6,0,337.0,778.0,0.0,765.0,1
897,897,0.7450267498100731,0.7,0,295.0,738.0,0.0,507.0,1
898,898,0.8288560259637658,0.8,0,442.0,606.0,0.0,242.0,1
899,899,-0.40272780861303326,-0.4,1,413.0,749.0,1.0,1118.0,1
900,900,0.8834863914528821,0.9,0,334.0,783.0,0.0,433.0,1
901,901,-0.7273668849838917,-0.7,1,293.0,919.0,1.0,458.0,1
902,902,-0.11611656559126904,-0.1,1,414.0,897.0,1.0,949.0,1
903,903,0.9276522026753751,0.9,0,440.0,810.0,0.0,1560.0,1
904,904,-0.879385999559064,-0.9,1,275.0,754.0,1.0,471.0,1
905,905,0.9044979066950409,0.9,0,356.0,782.0,0.0,322.0,1
906,906,-0.26947694829918856,-0.3,1,284.0,883.0,1.0,1463.0,1
907,907,-0.9230677618127929,-0.9,1,460.0,890.0,1.0,220.0,1
908,908,0.6773794374944866,0.7,0,410.0,937.0,0.0,283.0,1
909,909,0.6909172701859216,0.7,0,354.0,910.0,0.0,406.0,1
910,910,0.647110738733351,0.6,0,449.0,739.0,0.0,202.0,1
911,911,0.34765271429407796,0.3,0,427.0,610.0,0.0,2943.0,1
912,912,0.21436831654237798,0.2,0,484.0,568.0,1.0,1328.0,0
913,913,-0.8861620379150184,-0.9,1,337.0,515.0,1.0,378.0,1
914,914,-0.7196932377658272,-0.7,1,429.0,730.0,1.0,1331.0,1
915,915,0.11297506649967115,0.1,0,460.0,866.0,0.0,914.0,1
916,916,-0.9149995358249199,-0.9,1,344.0,767.0,1.0,519.0,1
917,917,0.35193683318768443,0.4,0,375.0,717.0,0.0,1328.0,1
918,918,0.6030793156159275,0.6,0,317.0,796.0,0.0,217.0,1
919,919,-0.8581675418652637,-0.9,1,329.0,750.0,1.0,281.0,1
920,920,0.10796979265438211,0.1,0,288.0,678.0,0.0,3724.0,1
921,921,0.8572837731099989,0.9,0,253.0,938.0,0.0,649.0,1
922,922,-0.3845338467888464,-0.4,1,494.0,955.0,1.0,991.0,1
923,923,-0.7072645258845087,-0.7,1,339.0,782.0,1.0,479.0,1
924,924,0.47545978835988123,0.5,0,328.0,522.0,0.0,760.0,1
925,925,-0.6844343377406064,-0.7,1,288.0,608.0,1.0,324.0,1
926,926,0.4783982082024838,0.5,0,326.0,760.0,0.0,444.0,1
927,927,-0.7847791031153502,-0.8,1,415.0,967.0,1.0,218.0,1
928,928,-0.1946908770805036,-0.2,1,354.0,880.0,1.0,366.0,1
929,929,-0.5694058246484259,-0.6,1,380.0,696.0,1.0,854.0,1
930,930,0.6666026429389407,0.7,0,476.0,738.0,0.0,856.0,1
931,931,-0.6597944150828139,-0.7,1,375.0,859.0,1.0,366.0,1
932,932,0.6779801399710135,0.7,0,260.0,620.0,0.0,1020.0,1
933,933,-0.07086501636227882,-0.1,1,371.0,980.0,1.0,829.0,1
934,934,0.9997081867551125,1.0,0,420.0,686.0,0.0,274.0,1
935,935,-0.4214744616357988,-0.4,1,330.0,938.0,1.0,472.0,1
936,936,0.2586332683348054,0.3,0,251.0,577.0,1.0,4172.0,0
937,937,-0.17205323032960007,-0.2,1,350.0,733.0,1.0,817.0,1
938,938,0.05877730278800586,0.1,0,254.0,840.0,1.0,506.0,0
939,939,0.27747800153437074,0.3,0,359.0,830.0,0.0,781.0,1
940,940,0.6844815541122091,0.7,0,489.0,522.0,0.0,329.0,1
941,941,-0.6553109739021199,-0.7,1,333.0,601.0,1.0,576.0,1
942,942,-0.6317947493448226,-0.6,1,427.0,749.0,1.0,394.0,1
943,943,-0.9103979786889462,-0.9,1,406.0,536.0,1.0,338.0,1
944,944,-0.4890311206849538,-0.5,1,493.0,892.0,1.0,895.0,1
945,945,0.38536148615092536,0.4,0,411.0,540.0,0.0,409.0,1
946,946,0.856129547117711,0.9,0,319.0,873.0,0.0,608.0,1
947,947,0.058307175885711215,0.1,0,364.0,628.0,1.0,928.0,0
948,948,-0.423709509380537,-0.4,1,317.0,563.0,1.0,910.0,1
949,949,0.0163648218576955,0.0,0,287.0,575.0,0.0,858.0,1
950,950,-0.9031695304044689,-0.9,1,383.0,993.0,1.0,174.0,1
951,951,0.06577079876389891,0.1,0,316.0,555.0,1.0,249.0,0
952,952,0.004507069500438332,0.0,0,290.0,835.0,1.0,465.0,0
953,953,-0.23353587783794216,-0.2,1,400.0,506.0,1.0,1274.0,1
954,954,0.7874771198021793,0.8,0,313.0,674.0,0.0,423.0,1
955,955,-0.8891627203535095,-0.9,1,251.0,959.0,1.0,600.0,1
956,956,0.47231380018915536,0.5,0,338.0,735.0,0.0,487.0,1
957,957,-0.8738486195505071,-0.9,1,334.0,842.0,1.0,294.0,1
958,958,0.6819375667904986,0.7,0,345.0,988.0,0.0,767.0,1
959,959,-0.13740124450722235,-0.1,1,279.0,587.0,1.0,664.0,1
960,960,0.6116595721654086,0.6,0,378.0,967.0,0.0,905.0,1
961,961,0.06596779232911132,0.1,0,252.0,910.0,0.0,1678.0,1
962,962,-0.9134669644428599,-0.9,1,460.0,803.0,1.0,237.0,1
963,963,0.6435175899898558,0.6,0,430.0,612.0,0.0,398.0,1
964,964,0.4733876555709202,0.5,0,488.0,777.0,0.0,2075.0,1
965,965,-0.5223758730596553,-0.5,1,482.0,718.0,1.0,400.0,1
966,966,0.6322539488196732,0.6,0,322.0,773.0,0.0,445.0,1
967,967,-0.48385142678671866,-0.5,1,496.0,992.0,1.0,442.0,1
968,968,-0.5530981045229197,-0.6,1,314.0,820.0,1.0,296.0,1
969,969,-0.1353050518908232,-0.1,1,304.0,721.0,0.0,1775.0,0
970,970,0.7915707605351996,0.8,0,389.0,959.0,0.0,972.0,1
971,971,-0.8497751426944236,-0.8,1,288.0,776.0,1.0,486.0,1
972,972,0.08506994689757219,0.1,0,381.0,918.0,1.0,911.0,0
973,973,0.40602599889774815,0.4,0,410.0,564.0,0.0,896.0,1
974,974,0.4074647395117763,0.4,0,363.0,570.0,0.0,267.0,1
975,975,0.37758571749279346,0.4,0,360.0,609.0,0.0,1211.0,1
976,976,-0.8954080791672279,-0.9,1,328.0,885.0,1.0,497.0,1
977,977,-0.8122688918258469,-0.8,1,253.0,796.0,1.0,591.0,1
978,978,-0.1592742154485891,-0.2,1,494.0,957.0,0.0,1709.0,0
979,979,-0.707977484534493,-0.7,1,416.0,879.0,1.0,165.0,1
980,980,0.6150550698650068,0.6,0,392.0,768.0,0.0,560.0,1
981,981,-0.9927176960669057,-1.0,1,279.0,672.0,1.0,519.0,1
982,982,0.11807882666241665,0.1,0,349.0,566.0,0.0,1995.0,1
983,983,0.1876030448531678,0.2,0,331.0,956.0,0.0,643.0,1
984,984,-0.10899413588199836,-0.1,1,264.0,919.0,1.0,1197.0,1
985,985,-0.7298168530006,-0.7,1,364.0,876.0,1.0,1340.0,1
986,986,0.0631513041085392,0.1,0,356.0,517.0,0.0,467.0,1
987,987,-0.0008307751538050301,-0.0,1,457.0,943.0,0.0,1720.0,0
988,988,-0.2349691686757336,-0.2,1,444.0,610.0,1.0,1826.0,1
989,989,-0.3770873595578699,-0.4,1,488.0,582.0,1.0,1740.0,1
990,990,0.9630162726254439,1.0,0,367.0,938.0,0.0,675.0,1
991,991,0.508924636934917,0.5,0,254.0,904.0,0.0,2172.0,1
992,992,0.3246521923011976,0.3,0,499.0,815.0,0.0,2256.0,1
993,993,0.7622653011817755,0.8,0,307.0,698.0,0.0,575.0,1
994,994,0.35413795562026595,0.4,0,278.0,864.0,1.0,2148.0,0
995,995,0.7866273778894559,0.8,0,272.0,625.0,0.0,243.0,1
996,996,0.3393998505017708,0.3,0,333.0,966.0,0.0,301.0,1
997,997,-0.13311596575397067,-0.1,1,417.0,658.0,1.0,1985.0,1
998,998,0.1415935258776626,0.1,0,352.0,902.0,0.0,836.0,1
999,999,0.18162357487176406,0.2,0,487.0,595.0,0.0,1108.0,1
1000,1000,0.8464771834346554,0.8,0,288.0,743.0,0.0,559.0,1
1001,1001,0.9093940970018775,0.9,0,259.0,728.0,0.0,293.0,1
1002,1002,0.2821420387495741,0.3,0,252.0,896.0,0.0,1592.0,1
1003,1003,-0.3623608263940705,-0.4,1,358.0,919.0,1.0,1653.0,1
1004,1004,0.8536593964422239,0.9,0,457.0,640.0,0.0,363.0,1
1005,1005,0.06045454953040896,0.1,0,467.0,759.0,1.0,1584.0,0
1006,1006,-0.008339086450792843,-0.0,1,369.0,674.0,0.0,1087.0,0
1007,1007,0.8518516605506132,0.9,0,358.0,543.0,0.0,399.0,1
1008,1008,-0.6451117844097254,-0.6,1,480.0,703.0,1.0,337.0,1
1009,1009,-0.7302701193445682,-0.7,1,451.0,682.0,1.0,477.0,1
1010,1010,-0.04913086258180299,-0.0,1,326.0,644.0,1.0,1630.0,1
1011,1011,0.21687865690286978,0.2,0,344.0,978.0,0.0,1278.0,1
1012,1012,-0.8176007047521092,-0.8,1,342.0,649.0,1.0,549.0,1
1013,1013,0.464816706229779,0.5,0,430.0,916.0,0.0,754.0,1
1014,1014,0.9086848249756603,0.9,0,392.0,583.0,0.0,455.0,1
1015,1015,-0.6942952746245279,-0.7,1,433.0,731.0,1.0,376.0,1
1016,1016,0.4734323576496622,0.5,0,256.0,900.0,0.0,264.0,1
1017,1017,0.40691511446807205,0.4,0,275.0,607.0,0.0,1988.0,1
1018,1018,-0.9450595275974016,-0.9,1,260.0,633.0,1.0,1027.0,1
1019,1019,0.11683778131513756,0.1,0,427.0,815.0,0.0,1068.0,1
1020,1020,-0.6868599423317348,-0.7,1,459.0,882.0,1.0,639.0,1
1021,1021,-0.7527808055005849,-0.8,1,469.0,792.0,1.0,399.0,1
1022,1022,0.7984895074492284,0.8,0,376.0,598.0,0.0,1086.0,1
1023,1023,-0.5378359681722622,-0.5,1,333.0,672.0,1.0,565.0,1
1024,1024,0.057516178548172814,0.1,0,359.0,545.0,0.0,576.0,1
1025,1025,0.6214933490447019,0.6,0,417.0,641.0,0.0,192.0,1
1026,1026,-0.3582507154482375,-0.4,1,261.0,896.0,1.0,1743.0,1
1027,1027,-0.9136939479377395,-0.9,1,299.0,818.0,1.0,183.0,1
1028,1028,0.6111772981339003,0.6,0,368.0,526.0,0.0,1046.0,1
1029,1029,0.6884209465627615,0.7,0,252.0,568.0,0.0,410.0,1
1030,1030,0.6193205957484982,0.6,0,279.0,845.0,0.0,326.0,1
1031,1031,0.7076545520726572,0.7,0,481.0,526.0,0.0,213.0,1
1032,1032,0.4216717175479061,0.4,0,395.0,721.0,0.0,1024.0,1
1033,1033,0.2776637111604028,0.3,0,396.0,728.0,0.0,866.0,1
1034,1034,-0.8520280154055053,-0.9,1,297.0,951.0,1.0,412.0,1
1035,1035,-0.31120647264439527,-0.3,1,454.0,978.0,1.0,3568.0,1
1036,1036,-0.0013809019948658463,-0.0,1,253.0,607.0,0.0,290.0,0
1037,1037,0.8254568677879515,0.8,0,465.0,735.0,0.0,690.0,1
1038,1038,-0.9330946726533162,-0.9,1,417.0,694.0,1.0,379.0,1
1039,1039,0.74335879775108,0.7,0,400.0,888.0,0.0,232.0,1
1040,1040,-0.62041585158924,-0.6,1,268.0,887.0,1.0,855.0,1
1041,1041,-0.9416815567141983,-0.9,1,458.0,600.0,1.0,1022.0,1
1042,1042,0.6693485647194573,0.7,0,364.0,649.0,0.0,267.0,1
1043,1043,0.31676369469213217,0.3,0,393.0,942.0,0.0,1055.0,1
1044,1044,-0.406104233489718,-0.4,1,283.0,960.0,1.0,507.0,1
1045,1045,0.37976871678763424,0.4,0,381.0,998.0,0.0,1101.0,1
1046,1046,0.5730840633676095,0.6,0,480.0,668.0,0.0,172.0,1
1047,1047,-0.7706484146124566,-0.8,1,479.0,610.0,1.0,621.0,1
1048,1048,0.36964321579874415,0.4,0,438.0,969.0,0.0,1173.0,1
1049,1049,0.3261155934100215,0.3,0,395.0,800.0,0.0,285.0,1
1050,1050,-0.9028864293559842,-0.9,1,448.0,950.0,1.0,672.0,1
1051,1051,0.35243742085805074,0.4,0,372.0,806.0,0.0,432.0,1
1052,1052,-0.8687535596551827,-0.9,1,358.0,621.0,1.0,221.0,1
1053,1053,0.22509474626247528,0.2,0,434.0,923.0,1.0,533.0,0
1054,1054,0.4421655342640898,0.4,0,288.0,719.0,0.0,1243.0,1
1055,1055,-0.3644517688476463,-0.4,1,357.0,761.0,1.0,642.0,1
1056,1056,-0.4750552217902244,-0.5,1,405.0,529.0,1.0,436.0,1
1057,1057,0.5916497713693794,0.6,0,420.0,559.0,0.0,1631.0,1
1058,1058,0.2880608308699464,0.3,0,293.0,617.0,0.0,270.0,1
1059,1059,0.9373287036851334,0.9,0,359.0,594.0,0.0,297.0,1
1060,1060,0.5933829325963624,0.6,0,252.0,604.0,0.0,964.0,1
1061,1061,0.4075470431588937,0.4,0,415.0,616.0,1.0,719.0,0
1062,1062,-0.6585333448875772,-0.7,1,481.0,730.0,1.0,609.0,1
1063,1063,-0.5118145087544199,-0.5,1,278.0,596.0,1.0,666.0,1
1064,1064,0.6658292696980679,0.7,0,383.0,617.0,0.0,500.0,1
1065,1065,0.37774143198010224,0.4,0,331.0,977.0,0.0,1412.0,1
1066,1066,0.5515170514227647,0.6,0,386.0,573.0,0.0,511.0,1
1067,1067,0.0427974839839067,0.0,0,480.0,836.0,0.0,1514.0,1
1068,1068,-0.47435882171264643,-0.5,1,446.0,612.0,1.0,1652.0,1
1069,1069,-0.3112909434333082,-0.3,1,255.0,887.0,1.0,1028.0,1
1070,1070,-0.35299057112073084,-0.4,1,439.0,793.0,1.0,3388.0,1
1071,1071,-0.6705320599156281,-0.7,1,427.0,566.0,1.0,317.0,1
1072,1072,0.5479868799912293,0.5,0,360.0,638.0,0.0,2162.0,1
1073,1073,-0.2609297929936538,-0.3,1,310.0,892.0,1.0,568.0,1
1074,1074,-0.6794755107693595,-0.7,1,428.0,781.0,1.0,281.0,1
1075,1075,0.19406970482933006,0.2,0,332.0,953.0,1.0,1915.0,0
1076,1076,-0.1243170753350209,-0.1,1,484.0,948.0,1.0,1398.0,1
1077,1077,0.17476756971071272,0.2,0,360.0,534.0,0.0,936.0,1
1078,1078,0.9507667903442847,1.0,0,456.0,526.0,0.0,498.0,1
1079,1079,-0.9160445848315686,-0.9,1,339.0,671.0,1.0,340.0,1
1080,1080,-0.7280332111257899,-0.7,1,395.0,510.0,1.0,1085.0,1
1081,1081,0.8298314788094983,0.8,0,480.0,757.0,0.0,133.0,1
1082,1082,0.3224490864155294,0.3,0,398.0,841.0,0.0,791.0,1
1083,1083,0.33978479091811287,0.3,0,480.0,741.0,0.0,939.0,1
1084,1084,-0.9352149739684661,-0.9,1,308.0,822.0,1.0,820.0,1
1085,1085,0.5889198699437732,0.6,0,364.0,824.0,0.0,232.0,1
1086,1086,0.5049416268768474,0.5,0,451.0,525.0,0.0,214.0,1
1087,1087,0.6811022053026212,0.7,0,360.0,568.0,0.0,962.0,1
1088,1088,-0.9458117655625669,-0.9,1,404.0,805.0,1.0,641.0,1
1089,1089,0.6746699226631643,0.7,0,352.0,536.0,0.0,922.0,1
1090,1090,0.013710195567945949,0.0,0,403.0,949.0,0.0,2208.0,1
1091,1091,-0.6751363197238993,-0.7,1,365.0,624.0,1.0,401.0,1
1092,1092,-0.16210307670095747,-0.2,1,461.0,797.0,0.0,2842.0,0
1093,1093,0.24160991195116033,0.2,0,413.0,982.0,0.0,955.0,1
1094,1094,0.6491933971034511,0.6,0,443.0,682.0,0.0,275.0,1
1095,1095,0.3807307454341189,0.4,0,350.0,936.0,0.0,684.0,1
1096,1096,-0.21702606747078268,-0.2,1,368.0,988.0,0.0,3644.0,0
1097,1097,-0.18396881094960094,-0.2,1,350.0,993.0,0.0,2397.0,0
1098,1098,0.5925958296878397,0.6,0,275.0,686.0,0.0,569.0,1
1099,1099,0.18746667929195304,0.2,0,364.0,897.0,0.0,2299.0,1
1100,1100,0.6754316640363107,0.7,0,298.0,771.0,1.0,321.0,0
1101,1101,-0.15044679607134448,-0.2,1,447.0,858.0,1.0,635.0,1
1102,1102,0.1437905224198166,0.1,0,343.0,736.0,0.0,981.0,1
1103,1103,0.015546813618919186,0.0,0,320.0,960.0,1.0,3720.0,0
1104,1104,0.3545591990861974,0.4,0,444.0,741.0,0.0,855.0,1
1105,1105,0.6808091227342725,0.7,0,298.0,879.0,0.0,253.0,1
1106,1106,0.8739022884093521,0.9,0,290.0,655.0,0.0,275.0,1
1107,1107,0.8080088910698091,0.8,0,283.0,501.0,0.0,816.0,1
1108,1108,-0.5448209747649637,-0.5,1,357.0,540.0,1.0,743.0,1
1109,1109,-0.5526447652438289,-0.6,1,412.0,668.0,1.0,380.0,1
1110,1110,-0.5337210959821814,-0.5,1,494.0,740.0,1.0,1616.0,1
1111,1111,-0.351786590810961,-0.4,1,253.0,569.0,1.0,1798.0,1
1112,1112,0.5584923869578047,0.6,0,419.0,707.0,0.0,2624.0,1
1113,1113,-0.20109781588852438,-0.2,1,295.0,827.0,1.0,3728.0,1
1114,1114,-0.4698362445624773,-0.5,1,327.0,533.0,1.0,2370.0,1
1115,1115,-0.2807861104907696,-0.3,1,421.0,581.0,1.0,988.0,1
1116,1116,0.46695996300291354,0.5,0,447.0,658.0,0.0,545.0,1
1117,1117,-0.9378802573664242,-0.9,1,277.0,661.0,1.0,262.0,1
1118,1118,0.809517907874497,0.8,0,396.0,776.0,0.0,468.0,1
1119,1119,0.9805348074622768,1.0,0,254.0,696.0,0.0,960.0,1
1120,1120,0.764955051942126,0.8,0,414.0,784.0,0.0,522.0,1
1121,1121,0.44653480833955084,0.4,0,486.0,948.0,0.0,546.0,1
1122,1122,0.5598810971582282,0.6,0,366.0,981.0,0.0,343.0,1
1123,1123,-0.8929459196577092,-0.9,1,325.0,704.0,1.0,201.0,1
1124,1124,0.006753196206998879,0.0,0,498.0,803.0,0.0,149.0,1
1125,1125,-0.16244848856841676,-0.2,1,345.0,691.0,1.0,2614.0,1
1126,1126,-0.3830412846568614,-0.4,1,266.0,744.0,1.0,630.0,1
1127,1127,-0.43302196668071735,-0.4,1,499.0,769.0,1.0,462.0,1
1128,1128,-0.9001702422986642,-0.9,1,253.0,943.0,1.0,374.0,1
1129,1129,-0.5470777954545267,-0.5,1,461.0,990.0,1.0,1559.0,1
1130,1130,0.4087235114320473,0.4,0,436.0,907.0,0.0,517.0,1
1131,1131,0.14657173631881504,0.1,0,268.0,644.0,0.0,218.0,1
1132,1132,-0.15085709721765217,-0.2,1,437.0,888.0,1.0,1335.0,1
1133,1133,-0.10816012337351011,-0.1,1,329.0,547.0,1.0,1734.0,1
1134,1134,-0.14972537722917623,-0.1,1,337.0,712.0,1.0,2271.0,1
1135,1135,-0.9191837487906611,-0.9,1,277.0,877.0,1.0,376.0,1
1136,1136,0.588035261044143,0.6,0,321.0,595.0,0.0,484.0,1
1137,1137,-0.31899452667504447,-0.3,1,394.0,878.0,1.0,1538.0,1
1138,1138,0.1394043638122704,0.1,0,300.0,933.0,1.0,2237.0,0
1139,1139,-0.05801491335875708,-0.1,1,371.0,593.0,0.0,1206.0,0
1140,1140,-0.20989197027994688,-0.2,1,403.0,690.0,1.0,347.0,1
1141,1141,0.874196205870259,0.9,0,385.0,963.0,0.0,472.0,1
1142,1142,-0.8874134420461648,-0.9,1,318.0,505.0,1.0,607.0,1
1143,1143,0.06659416201063095,0.1,0,263.0,876.0,0.0,2321.0,1
1144,1144,-0.37196333125473613,-0.4,1,286.0,506.0,1.0,2058.0,1
1145,1145,-0.7532063216552269,-0.8,1,292.0,704.0,1.0,214.0,1
1146,1146,0.5778345906928142,0.6,0,347.0,623.0,0.0,660.0,1
1147,1147,0.9055077561575275,0.9,0,408.0,797.0,0.0,555.0,1
1148,1148,0.9022355786022442,0.9,0,253.0,884.0,0.0,343.0,1
1149,1149,0.1988349008512449,0.2,0,326.0,751.0,0.0,2033.0,1
1150,1150,-0.09519906456279736,-0.1,1,367.0,805.0,0.0,358.0,0
1151,1151,0.5324111086595253,0.5,0,369.0,866.0,0.0,1275.0,1
1152,1152,-0.31375766635825686,-0.3,1,380.0,900.0,1.0,2870.0,1
1153,1153,0.08793220039920624,0.1,0,366.0,577.0,0.0,1127.0,1
1154,1154,-0.8353556826313446,-0.8,1,484.0,655.0,1.0,731.0,1
1155,1155,-0.4519713382135193,-0.5,1,404.0,516.0,1.0,1370.0,1
1156,1156,-0.13639339064946565,-0.1,1,403.0,695.0,0.0,1372.0,0
1157,1157,-0.45943484789637123,-0.5,1,484.0,558.0,1.0,508.0,1
1158,1158,-0.8202106725050973,-0.8,1,299.0,779.0,1.0,312.0,1
1159,1159,-0.7106915199972872,-0.7,1,318.0,702.0,1.0,410.0,1
1160,1160,0.7467206702215865,0.7,0,290.0,822.0,0.0,328.0,1
1161,1161,-0.3596647126378272,-0.4,1,343.0,582.0,1.0,695.0,1
1162,1162,0.9942066935298879,1.0,0,342.0,724.0,0.0,484.0,1
1163,1163,-0.5587859008487985,-0.6,1,350.0,801.0,1.0,189.0,1
1164,1164,0.1612880029704622,0.2,0,411.0,791.0,1.0,268.0,0
1165,1165,-0.24784097966161034,-0.2,1,401.0,633.0,0.0,1406.0,0
1166,1166,0.7068779723067513,0.7,0,285.0,840.0,0.0,345.0,1
1167,1167,-0.31623037019473066,-0.3,1,472.0,825.0,1.0,313.0,1
1168,1168,0.13088968571198434,0.1,0,413.0,588.0,0.0,319.0,1
1169,1169,0.323373864455865,0.3,0,378.0,924.0,0.0,2208.0,1
1170,1170,-0.8725277272830039,-0.9,1,428.0,782.0,1.0,370.0,1
1171,1171,0.03393701234014457,0.0,0,385.0,752.0,1.0,3603.0,0
1172,1172,0.6862161782245151,0.7,0,292.0,901.0,0.0,577.0,1
1173,1173,0.4963315305017615,0.5,0,438.0,898.0,0.0,1274.0,1
1174,1174,0.3557350940600339,0.4,0,345.0,690.0,0.0,1415.0,1
1175,1175,-0.25006582039983805,-0.3,1,427.0,755.0,0.0,398.0,0
1176,1176,-0.4707603897682031,-0.5,1,309.0,634.0,1.0,847.0,1
1177,1177,0.8257776796580838,0.8,0,431.0,832.0,0.0,187.0,1
1178,1178,-0.055753182330775086,-0.1,1,314.0,823.0,1.0,1273.0,1
1179,1179,-0.3776879517073075,-0.4,1,485.0,777.0,1.0,428.0,1
1180,1180,0.7606823362626072,0.8,0,485.0,944.0,0.0,381.0,1
1181,1181,-0.5861859835530785,-0.6,1,363.0,917.0,1.0,700.0,1
1182,1182,-0.06676600667642263,-0.1,1,497.0,841.0,0.0,3042.0,0
1183,1183,0.527017786738657,0.5,0,496.0,772.0,0.0,612.0,1
1184,1184,-0.2799328100025056,-0.3,1,407.0,629.0,1.0,684.0,1
1185,1185,-0.695187147112114,-0.7,1,387.0,711.0,1.0,462.0,1
1186,1186,-0.3370604425034087,-0.3,1,436.0,781.0,1.0,2543.0,1
1187,1187,-0.5827091484727975,-0.6,1,499.0,830.0,1.0,891.0,1
1188,1188,-0.7562844867978529,-0.8,1,303.0,894.0,1.0,593.0,1
1189,1189,0.08253877158284051,0.1,0,263.0,943.0,0.0,524.0,1
1190,1190,-0.7671382802180298,-0.8,1,460.0,915.0,1.0,495.0,1
1191,1191,-0.6830200501630002,-0.7,1,444.0,636.0,1.0,540.0,1
1192,1192,-0.6164343208927148,-0.6,1,407.0,507.0,1.0,226.0,1
1193,1193,0.6647229761109004,0.7,0,499.0,606.0,0.0,1245.0,1
1194,1194,-0.3941633087438363,-0.4,1,455.0,729.0,1.0,506.0,1
1195,1195,0.9667518226914393,1.0,0,274.0,516.0,0.0,850.0,1
1196,1196,-0.9444021895822834,-0.9,1,333.0,924.0,1.0,713.0,1
1197,1197,0.30692334951112343,0.3,0,364.0,668.0,0.0,838.0,1
1198,1198,-0.673744372663436,-0.7,1,493.0,782.0,1.0,215.0,1
1199,1199,-0.6337222169511105,-0.6,1,462.0,528.0,1.0,750.0,1
1200,1200,-0.45483457700173746,-0.5,1,380.0,694.0,1.0,1056.0,1
1201,1201,-0.6566090874653319,-0.7,1,258.0,797.0,1.0,225.0,1
1202,1202,-0.28753462785805906,-0.3,1,282.0,770.0,1.0,678.0,1
1203,1203,-0.8567240761313064,-0.9,1,411.0,507.0,1.0,212.0,1
1204,1204,0.2021352547455808,0.2,0,453.0,636.0,0.0,611.0,1
1205,1205,-0.6100590528080247,-0.6,1,490.0,915.0,1.0,235.0,1
1206,1206,-0.7795226435713187,-0.8,1,408.0,818.0,1.0,804.0,1
1207,1207,-0.6996297031546157,-0.7,1,272.0,592.0,1.0,336.0,1
1208,1208,-0.6444187602976601,-0.6,1,444.0,593.0,1.0,613.0,1
1209,1209,0.48228969073725003,0.5,0,472.0,530.0,0.0,968.0,1
1210,1210,-0.3474222008978045,-0.3,1,261.0,711.0,1.0,908.0,1
1211,1211,-0.03696630931015932,-0.0,1,268.0,686.0,1.0,886.0,1
1212,1212,-0.8998499397504023,-0.9,1,367.0,519.0,1.0,444.0,1
1213,1213,0.5138339187276835,0.5,0,424.0,691.0,0.0,695.0,1
1214,1214,-0.2944143107970425,-0.3,1,427.0,991.0,1.0,922.0,1
1215,1215,0.6363286131542498,0.6,0,353.0,610.0,0.0,357.0,1
1216,1216,0.4746926205136397,0.5,0,343.0,957.0,0.0,1110.0,1
1217,1217,0.8195351209844708,0.8,0,339.0,544.0,0.0,1137.0,1
1218,1218,0.05900225091540845,0.1,0,380.0,667.0,0.0,213.0,1
1219,1219,-0.9396548773131805,-0.9,1,394.0,511.0,1.0,215.0,1
1220,1220,-0.7532818060810862,-0.8,1,491.0,557.0,1.0,532.0,1
1221,1221,0.2369858185011442,0.2,0,330.0,731.0,1.0,2039.0,0
1222,1222,-0.24508996182938692,-0.2,1,280.0,920.0,1.0,340.0,1
1223,1223,0.5567708177607764,0.6,0,392.0,989.0,0.0,829.0,1
1224,1224,0.2844455362959406,0.3,0,251.0,780.0,0.0,579.0,1
1225,1225,0.5929906469965676,0.6,0,312.0,670.0,0.0,738.0,1
1226,1226,-0.25585290455714205,-0.3,1,496.0,848.0,1.0,776.0,1
1227,1227,-0.5044902735296275,-0.5,1,364.0,754.0,1.0,1062.0,1
1228,1228,0.016555631953528493,0.0,0,294.0,623.0,0.0,413.0,1
1229,1229,-0.40774380535405563,-0.4,1,450.0,647.0,1.0,643.0,1
1230,1230,0.6889484522943714,0.7,0,424.0,750.0,0.0,376.0,1
1231,1231,0.5444037443362357,0.5,0,303.0,724.0,0.0,533.0,1
1232,1232,-0.6363234104053432,-0.6,1,302.0,850.0,1.0,698.0,1
1233,1233,0.9743601483537245,1.0,0,357.0,841.0,0.0,672.0,1
1234,1234,0.46591328065840365,0.5,0,399.0,993.0,0.0,608.0,1
1235,1235,-0.7547405043298445,-0.8,1,345.0,933.0,1.0,722.0,1
1236,1236,-0.05021238507134451,-0.1,1,401.0,638.0,1.0,1531.0,1
1237,1237,-0.8121603737384542,-0.8,1,254.0,739.0,1.0,427.0,1
1238,1238,0.3081771251360219,0.3,0,305.0,782.0,0.0,1033.0,1
1239,1239,0.027637956554593446,0.0,0,485.0,929.0,1.0,776.0,0
1240,1240,0.8579796585619763,0.9,0,366.0,745.0,0.0,279.0,1
1241,1241,0.1410111202669304,0.1,0,411.0,782.0,0.0,747.0,1
1242,1242,-0.7046414420380835,-0.7,1,475.0,726.0,1.0,559.0,1
1243,1243,-0.3939219076553535,-0.4,1,327.0,718.0,1.0,755.0,1
1244,1244,0.7851980969916685,0.8,0,415.0,920.0,0.0,825.0,1
1245,1245,0.22737671054434627,0.2,0,286.0,672.0,0.0,1362.0,1
1246,1246,-0.8615976604298099,-0.9,1,356.0,712.0,1.0,572.0,1
1247,1247,-0.39947124016016855,-0.4,1,493.0,690.0,1.0,427.0,1
1248,1248,0.6535583722774616,0.7,0,411.0,887.0,0.0,1662.0,1
1249,1249,-0.5068706619821708,-0.5,1,457.0,688.0,1.0,595.0,1
1250,1250,0.0950932736315635,0.1,0,422.0,606.0,0.0,3232.0,1
1251,1251,0.0007707555305085378,0.0,0,391.0,527.0,0.0,1952.0,1
1252,1252,0.852912308455364,0.9,0,490.0,964.0,0.0,486.0,1
1253,1253,0.8326162963534036,0.8,0,353.0,574.0,0.0,473.0,1
1254,1254,-0.9638654320980458,-1.0,1,302.0,643.0,1.0,405.0,1
1255,1255,-0.06387841976479725,-0.1,1,478.0,959.0,1.0,533.0,1
1256,1256,0.16178125450309633,0.2,0,478.0,932.0,0.0,660.0,1
1257,1257,-0.11091117861713551,-0.1,1,420.0,776.0,0.0,924.0,0
1258,1258,0.03369702940956554,0.0,0,343.0,609.0,1.0,1688.0,0
1259,1259,-0.6570914862673458,-0.7,1,462.0,653.0,1.0,355.0,1
1260,1260,-0.06908461044398861,-0.1,1,477.0,912.0,0.0,1631.0,0
1261,1261,-0.7035038477694562,-0.7,1,488.0,826.0,1.0,176.0,1
1262,1262,0.11481452061656094,0.1,0,465.0,816.0,0.0,299.0,1
1263,1263,-0.8482955679929103,-0.8,1,408.0,918.0,1.0,2904.0,1
1264,1264,-0.20744051905973038,-0.2,1,456.0,543.0,1.0,521.0,1
1265,1265,0.908637845923175,0.9,0,285.0,655.0,0.0,470.0,1
1266,1266,-0.2791261850377553,-0.3,1,454.0,575.0,1.0,1341.0,1
1267,1267,-0.09242532315845908,-0.1,1,370.0,970.0,1.0,1620.0,1
1268,1268,-0.8451408344415854,-0.8,1,290.0,698.0,1.0,952.0,1
1269,1269,0.5355576618299578,0.5,0,474.0,912.0,0.0,414.0,1
1270,1270,-0.5842364132969393,-0.6,1,305.0,516.0,1.0,549.0,1
1271,1271,0.6744066371169395,0.7,0,433.0,656.0,0.0,221.0,1
1272,1272,-0.03625590150626756,-0.0,1,324.0,836.0,1.0,2730.0,1
1273,1273,-0.04296675132906036,-0.0,1,394.0,867.0,1.0,959.0,1
1274,1274,-0.7008421418660808,-0.7,1,395.0,990.0,1.0,475.0,1
1275,1275,0.7340145448544544,0.7,0,259.0,690.0,0.0,291.0,1
1276,1276,-0.9432090190669795,-0.9,1,436.0,544.0,1.0,390.0,1
1277,1277,0.4871015878077589,0.5,0,319.0,741.0,0.0,510.0,1
1278,1278,0.10495458628906751,0.1,0,473.0,892.0,0.0,725.0,1
1279,1279,-0.1402440403841645,-0.1,1,380.0,713.0,0.0,947.0,0
1280,1280,-0.06950784304082247,-0.1,1,495.0,972.0,0.0,703.0,0
1281,1281,-0.6339888964822591,-0.6,1,254.0,721.0,1.0,465.0,1
1282,1282,0.7453822647520942,0.7,0,394.0,827.0,0.0,259.0,1
1283,1283,-0.6594744401780908,-0.7,1,489.0,979.0,1.0,892.0,1
1284,1284,-0.5247377553872168,-0.5,1,497.0,580.0,1.0,1073.0,1
1285,1285,0.5568973425712167,0.6,0,326.0,959.0,0.0,1275.0,1
1286,1286,0.24193193798103807,0.2,0,386.0,857.0,0.0,617.0,1
1287,1287,0.7745362494760097,0.8,0,251.0,502.0,0.0,367.0,1
1288,1288,0.5969923283551557,0.6,0,470.0,773.0,0.0,1417.0,1
1289,1289,0.9092087010290477,0.9,0,405.0,545.0,0.0,250.0,1
1290,1290,-0.09110114504331612,-0.1,1,313.0,953.0,0.0,1044.0,0
1291,1291,0.3609659133276526,0.4,0,324.0,521.0,1.0,1065.0,0
1292,1292,0.2197332399576235,0.2,0,456.0,974.0,0.0,1380.0,1
1293,1293,-0.3709104050526846,-0.4,1,494.0,787.0,1.0,309.0,1
1294,1294,0.24587900612278735,0.2,0,304.0,998.0,0.0,2448.0,1
1295,1295,0.735300145683295,0.7,0,332.0,705.0,0.0,363.0,1
1296,1296,-0.5658128768304929,-0.6,1,486.0,997.0,1.0,507.0,1
1297,1297,-0.6711720020067589,-0.7,1,395.0,598.0,1.0,467.0,1
1298,1298,-0.4404967811577285,-0.4,1,466.0,930.0,1.0,964.0,1
1299,1299,-0.6758812843334732,-0.7,1,417.0,948.0,1.0,335.0,1
1300,1300,-0.8471575598689105,-0.8,1,301.0,885.0,1.0,514.0,1
1301,1301,-0.7283844310661576,-0.7,1,460.0,714.0,1.0,496.0,1
1302,1302,-0.6146773013843903,-0.6,1,488.0,760.0,1.0,602.0,1
1303,1303,0.6411262943623657,0.6,0,383.0,923.0,0.0,634.0,1
1304,1304,0.039317894348394944,0.0,0,406.0,677.0,0.0,2477.0,1
1305,1305,-0.18566482820352692,-0.2,1,461.0,628.0,0.0,771.0,0
1306,1306,0.032288302353008946,0.0,0,288.0,537.0,0.0,2145.0,1
1307,1307,-0.4046285546178805,-0.4,1,495.0,794.0,1.0,1221.0,1
1308,1308,0.33662785828816433,0.3,0,411.0,719.0,0.0,360.0,1
1309,1309,0.17950960439074204,0.2,0,355.0,939.0,0.0,366.0,1
1310,1310,-0.8656721189966909,-0.9,1,452.0,587.0,1.0,341.0,1
1311,1311,0.18705061183814875,0.2,0,485.0,811.0,0.0,1174.0,1
1312,1312,-0.5790478844033176,-0.6,1,364.0,824.0,1.0,482.0,1
1313,1313,-0.024464887924171785,-0.0,1,495.0,687.0,0.0,798.0,0
1314,1314,-0.819639732561511,-0.8,1,320.0,774.0,1.0,846.0,1
1315,1315,0.7320278689382225,0.7,0,281.0,755.0,0.0,484.0,1
1316,1316,-0.5185895644725589,-0.5,1,395.0,581.0,1.0,734.0,1
1317,1317,0.0035999429402182592,0.0,0,416.0,644.0,1.0,2050.0,0
1318,1318,0.42462935836771476,0.4,0,288.0,918.0,1.0,324.0,0
1319,1319,0.8615863758774216,0.9,0,414.0,870.0,0.0,1056.0,1
1320,1320,0.9764622974703281,1.0,0,394.0,959.0,0.0,387.0,1
1321,1321,-0.8691383368555343,-0.9,1,392.0,741.0,1.0,837.0,1
1322,1322,-0.5515782572959655,-0.6,1,323.0,727.0,1.0,980.0,1
1323,1323,-0.037940683462072355,-0.0,1,455.0,966.0,0.0,989.0,0
1324,1324,-0.1903153135114264,-0.2,1,322.0,774.0,1.0,404.0,1
1325,1325,0.15141264109649843,0.2,0,269.0,982.0,0.0,269.0,1
1326,1326,-0.37754419192435895,-0.4,1,411.0,668.0,1.0,351.0,1
1327,1327,0.09962698557174932,0.1,0,472.0,797.0,0.0,821.0,1
1328,1328,0.24215450090983914,0.2,0,440.0,573.0,0.0,407.0,1
1329,1329,-0.9234730673564608,-0.9,1,364.0,763.0,1.0,533.0,1
1330,1330,0.4577870927201386,0.5,0,255.0,720.0,0.0,1435.0,1
1331,1331,0.36011058925709816,0.4,0,259.0,787.0,0.0,1884.0,1
1332,1332,-0.2134118767524802,-0.2,1,465.0,543.0,1.0,612.0,1
1333,1333,0.21647902311559664,0.2,0,419.0,591.0,0.0,940.0,1
1334,1334,-0.7870287736020642,-0.8,1,454.0,872.0,1.0,594.0,1
1335,1335,-0.9752198020223264,-1.0,1,496.0,654.0,1.0,1020.0,1
1336,1336,-0.10553402073190665,-0.1,1,400.0,718.0,1.0,752.0,1
1337,1337,-0.71588273290606,-0.7,1,305.0,603.0,1.0,212.0,1
1338,1338,0.679350988895236,0.7,0,450.0,556.0,0.0,344.0,1
1339,1339,0.14841985784698797,0.1,0,439.0,749.0,1.0,582.0,0
1340,1340,0.6914100631004181,0.7,0,434.0,657.0,0.0,269.0,1
1341,1341,0.7779899683174059,0.8,0,456.0,662.0,0.0,382.0,1
1342,1342,0.8568178745854649,0.9,0,476.0,693.0,0.0,1101.0,1
1343,1343,-0.9762890390335928,-1.0,1,378.0,769.0,1.0,123.0,1
1344,1344,0.8810780072567173,0.9,0,350.0,613.0,0.0,327.0,1
1345,1345,0.887537775415743,0.9,0,484.0,669.0,0.0,257.0,1
1346,1346,0.8952201292004514,0.9,0,314.0,808.0,0.0,448.0,1
1347,1347,0.904846670218717,0.9,0,432.0,601.0,0.0,407.0,1
1348,1348,-0.7183639910940931,-0.7,1,360.0,928.0,1.0,472.0,1
1349,1349,-0.0971739230422124,-0.1,1,301.0,870.0,1.0,1689.0,1
1350,1350,-0.7987709680332367,-0.8,1,469.0,872.0,1.0,289.0,1
1351,1351,-0.12771419041566467,-0.1,1,284.0,535.0,1.0,271.0,1
1352,1352,-0.940316694087526,-0.9,1,340.0,838.0,1.0,612.0,1
1353,1353,-0.5605142936099254,-0.6,1,300.0,848.0,1.0,352.0,1
1354,1354,0.9529368745297868,1.0,0,292.0,827.0,0.0,371.0,1
1355,1355,-0.5154717715585362,-0.5,1,433.0,885.0,1.0,682.0,1
1356,1356,-0.013373693031856648,-0.0,1,487.0,829.0,1.0,284.0,1
1357,1357,-0.6485909419524734,-0.6,1,272.0,954.0,1.0,614.0,1
1358,1358,-0.8699674398051762,-0.9,1,494.0,829.0,1.0,227.0,1
1359,1359,-0.04907906169926801,-0.0,1,369.0,627.0,0.0,2244.0,0
1360,1360,-0.9530202023024621,-1.0,1,316.0,748.0,1.0,346.0,1
1361,1361,-0.7261936473592667,-0.7,1,443.0,814.0,1.0,513.0,1
1362,1362,0.5241584355766438,0.5,0,354.0,778.0,0.0,368.0,1
1363,1363,0.8532515461257044,0.9,0,443.0,965.0,0.0,622.0,1
1364,1364,0.48568552578526925,0.5,0,295.0,682.0,0.0,1013.0,1
1365,1365,-0.26152420287315414,-0.3,1,269.0,627.0,1.0,694.0,1
1366,1366,-0.6751824303271816,-0.7,1,404.0,640.0,1.0,586.0,1
1367,1367,0.4433020026925458,0.4,0,362.0,801.0,0.0,707.0,1
1368,1368,-0.35446226168250594,-0.4,1,416.0,698.0,1.0,156.0,1
1369,1369,0.1758116061069448,0.2,0,382.0,532.0,1.0,1936.0,0
1370,1370,0.34145810356784745,0.3,0,344.0,745.0,0.0,1111.0,1
1371,1371,0.5035376963627454,0.5,0,322.0,905.0,0.0,923.0,1
1372,1372,-0.011606355673936752,-0.0,1,488.0,878.0,0.0,234.0,0
1373,1373,-0.09430683755733305,-0.1,1,449.0,621.0,0.0,1190.0,0
1374,1374,0.1786094243595684,0.2,0,304.0,714.0,0.0,1582.0,1
1375,1375,-0.8660894295282233,-0.9,1,275.0,594.0,1.0,471.0,1
1376,1376,-0.687635575954676,-0.7,1,304.0,815.0,1.0,371.0,1
1377,1377,0.646905715156163,0.6,0,443.0,867.0,0.0,990.0,1
1378,1378,-0.27208285994450065,-0.3,1,336.0,740.0,1.0,2604.0,1
1379,1379,0.017598218671090127,0.0,0,431.0,632.0,1.0,3937.0,0
1380,1380,-0.8774423142583456,-0.9,1,427.0,888.0,1.0,395.0,1
1381,1381,-0.16600163673424206,-0.2,1,353.0,670.0,1.0,2557.0,1
1382,1382,0.5299332666430827,0.5,0,421.0,818.0,0.0,551.0,1
1383,1383,-0.2425673924322307,-0.2,1,276.0,747.0,1.0,2747.0,1
1384,1384,0.9440730121343428,0.9,0,392.0,584.0,0.0,464.0,1
1385,1385,0.4833376830512215,0.5,0,412.0,708.0,0.0,1370.0,1
1386,1386,0.021132119990768805,0.0,0,329.0,655.0,1.0,2586.0,0
1387,1387,-0.8398601338214797,-0.8,1,424.0,617.0,1.0,399.0,1
1388,1388,0.9822530567481342,1.0,0,424.0,637.0,0.0,499.0,1
1389,1389,-0.40339410264684084,-0.4,1,333.0,682.0,1.0,1025.0,1
1390,1390,-0.41934090003041224,-0.4,1,326.0,778.0,1.0,1106.0,1
1391,1391,-0.6929978185879393,-0.7,1,394.0,934.0,1.0,512.0,1
1392,1392,-0.9228042247487973,-0.9,1,270.0,708.0,1.0,552.0,1
1393,1393,-0.29959846196985085,-0.3,1,352.0,565.0,1.0,1543.0,1
1394,1394,-0.21972858562730901,-0.2,1,294.0,631.0,1.0,1535.0,1
1395,1395,-0.46136271026804443,-0.5,1,377.0,842.0,1.0,3461.0,1
1396,1396,0.7279540842043795,0.7,0,335.0,965.0,0.0,260.0,1
1397,1397,0.6845113908388176,0.7,0,459.0,637.0,0.0,504.0,1
1398,1398,-0.05634572833021734,-0.1,1,467.0,641.0,1.0,472.0,1
1399,1399,-0.7526098643690053,-0.8,1,358.0,654.0,1.0,548.0,1
1400,1400,-0.3546081270202701,-0.4,1,343.0,933.0,1.0,1024.0,1
1401,1401,-0.5754714801792096,-0.6,1,454.0,673.0,1.0,1153.0,1
1402,1402,-0.5745516267086872,-0.6,1,261.0,609.0,1.0,570.0,1
1403,1403,-0.27352829468370277,-0.3,1,411.0,834.0,1.0,345.0,1
1404,1404,0.59116464062294,0.6,0,277.0,908.0,0.0,935.0,1
1405,1405,-0.3153416677150873,-0.3,1,255.0,775.0,1.0,1740.0,1
1406,1406,-0.027442851789689637,-0.0,1,266.0,837.0,1.0,417.0,1
1407,1407,-0.5251038429464518,-0.5,1,488.0,986.0,1.0,146.0,1
1408,1408,0.16966567719967274,0.2,0,396.0,572.0,1.0,992.0,0
1409,1409,0.4516447585890717,0.5,0,280.0,661.0,0.0,619.0,1
1410,1410,0.1115429967149848,0.1,0,388.0,987.0,0.0,1715.0,1
1411,1411,0.2888896876682774,0.3,0,257.0,525.0,0.0,488.0,1
1412,1412,-0.536106846698843,-0.5,1,260.0,510.0,1.0,940.0,1
1413,1413,-0.6043567287250642,-0.6,1,460.0,732.0,1.0,428.0,1
1414,1414,-0.8641494831402194,-0.9,1,457.0,819.0,1.0,294.0,1
1415,1415,-0.2530928188240036,-0.3,1,422.0,827.0,1.0,341.0,1
1416,1416,-0.6060204943322467,-0.6,1,253.0,967.0,1.0,1130.0,1
1417,1417,-0.6836440080950945,-0.7,1,393.0,693.0,1.0,894.0,1
1418,1418,-0.48840216562897165,-0.5,1,256.0,800.0,1.0,364.0,1
1419,1419,-0.48755822038219065,-0.5,1,322.0,596.0,1.0,632.0,1
1420,1420,-0.714437674526123,-0.7,1,358.0,606.0,1.0,376.0,1
1421,1421,-0.6021850629682164,-0.6,1,309.0,826.0,1.0,1405.0,1
1422,1422,0.15525512848485956,0.2,0,264.0,637.0,0.0,669.0,1
1423,1423,-0.7628198737809584,-0.8,1,407.0,740.0,1.0,373.0,1
1424,1424,0.30077780177350655,0.3,0,412.0,533.0,0.0,995.0,1
1425,1425,-0.4934748226077441,-0.5,1,358.0,672.0,1.0,1830.0,1
1426,1426,0.27160074086472874,0.3,0,422.0,591.0,0.0,1187.0,1
1427,1427,-0.8107291696180425,-0.8,1,492.0,765.0,1.0,1113.0,1
1428,1428,0.34769983880127775,0.3,0,321.0,894.0,0.0,655.0,1
1429,1429,-0.8923590721102947,-0.9,1,315.0,893.0,1.0,632.0,1
1430,1430,-0.3340289874394433,-0.3,1,326.0,800.0,0.0,794.0,0
1431,1431,0.9090067567614335,0.9,0,408.0,598.0,0.0,424.0,1
1432,1432,-0.2293139473866277,-0.2,1,467.0,809.0,1.0,1214.0,1
1433,1433,0.5368429941087769,0.5,0,274.0,837.0,0.0,249.0,1
1434,1434,0.5109566160407237,0.5,0,299.0,821.0,0.0,350.0,1
1435,1435,-0.812711808253131,-0.8,1,438.0,999.0,1.0,933.0,1
1436,1436,0.7704792651058343,0.8,0,458.0,948.0,0.0,474.0,1
1437,1437,0.8587996273694987,0.9,0,340.0,530.0,0.0,610.0,1
1438,1438,-0.025965931401375153,-0.0,1,499.0,844.0,1.0,1497.0,1
1439,1439,-0.5725764729100487,-0.6,1,339.0,690.0,1.0,261.0,1
1440,1440,-0.34244975195188965,-0.3,1,371.0,895.0,1.0,714.0,1
1441,1441,0.22350688137147912,0.2,0,489.0,606.0,0.0,965.0,1
1442,1442,-0.7506201686786205,-0.8,1,435.0,551.0,1.0,734.0,1
1443,1443,0.12905027415173254,0.1,0,449.0,865.0,1.0,896.0,0
1444,1444,-0.3716379435154076,-0.4,1,439.0,835.0,1.0,656.0,1
1445,1445,0.5044878793628769,0.5,0,250.0,580.0,1.0,1570.0,0
1446,1446,0.5571674759032335,0.6,0,413.0,728.0,0.0,1589.0,1
1447,1447,0.8826669403439715,0.9,0,286.0,641.0,0.0,383.0,1
1448,1448,0.9012296033981235,0.9,0,277.0,770.0,0.0,1203.0,1
1449,1449,0.5571991127335163,0.6,0,421.0,615.0,0.0,374.0,1
1450,1450,-0.4202740690334048,-0.4,1,345.0,968.0,1.0,447.0,1
1451,1451,0.5828507136851158,0.6,0,491.0,662.0,0.0,417.0,1
1452,1452,-0.8373232491498417,-0.8,1,411.0,673.0,1.0,336.0,1
1453,1453,-0.37905485613211787,-0.4,1,405.0,652.0,1.0,643.0,1
1454,1454,0.20921838352668565,0.2,0,377.0,558.0,1.0,645.0,0
1455,1455,-0.0399118963893772,-0.0,1,368.0,718.0,1.0,884.0,1
1456,1456,0.807242491615473,0.8,0,356.0,500.0,0.0,924.0,1
1457,1457,-0.46669094298354397,-0.5,1,435.0,838.0,1.0,1377.0,1
1458,1458,-0.8398180695986981,-0.8,1,294.0,731.0,0.0,305.0,0
1459,1459,-0.5697769282251692,-0.6,1,484.0,524.0,1.0,932.0,1
1460,1460,-0.7858202606755291,-0.8,1,486.0,977.0,1.0,387.0,1
1461,1461,-0.6121654331542197,-0.6,1,407.0,831.0,1.0,562.0,1
1462,1462,0.7983040113631317,0.8,0,391.0,881.0,0.0,468.0,1
1463,1463,0.4291121351120022,0.4,0,478.0,568.0,0.0,434.0,1
1464,1464,0.5274774666623869,0.5,0,325.0,649.0,0.0,1536.0,1
1465,1465,0.420473630315674,0.4,0,417.0,521.0,1.0,322.0,0
1466,1466,-0.10265945936309118,-0.1,1,373.0,915.0,0.0,942.0,0
1467,1467,0.9369996511639649,0.9,0,336.0,649.0,0.0,755.0,1
1468,1468,0.1278591637639972,0.1,0,336.0,600.0,0.0,3354.0,1
1469,1469,0.34877205175180426,0.3,0,361.0,815.0,0.0,554.0,1
1470,1470,0.8847436397604711,0.9,0,370.0,817.0,0.0,773.0,1
1471,1471,-0.38848484686620877,-0.4,1,302.0,565.0,1.0,473.0,1
1472,1472,0.48153269169778135,0.5,0,291.0,521.0,0.0,448.0,1
1473,1473,-0.9254482161883384,-0.9,1,476.0,794.0,1.0,830.0,1
1474,1474,-0.8760578776262973,-0.9,1,395.0,842.0,1.0,413.0,1
1475,1475,0.22804669965088564,0.2,0,336.0,928.0,1.0,1416.0,0
1476,1476,0.05186041329136315,0.1,0,256.0,710.0,0.0,924.0,1
1477,1477,0.2785386027692791,0.3,0,315.0,707.0,0.0,328.0,1
1478,1478,0.2171286569939792,0.2,0,317.0,979.0,0.0,944.0,1
1479,1479,0.31560706702705943,0.3,0,473.0,749.0,0.0,1088.0,1
1480,1480,0.7561958500561841,0.8,0,321.0,886.0,0.0,1093.0,1
1481,1481,-0.8015977903988003,-0.8,1,304.0,966.0,1.0,320.0,1
1482,1482,0.9535957789603209,1.0,0,416.0,919.0,0.0,445.0,1
1483,1483,0.9420700326355307,0.9,0,432.0,612.0,0.0,376.0,1
1484,1484,-0.5445428083858646,-0.5,1,306.0,894.0,1.0,720.0,1
1485,1485,-0.07626612046250036,-0.1,1,393.0,943.0,0.0,1364.0,0
1486,1486,0.9890978681722749,1.0,0,337.0,848.0,0.0,265.0,1
1487,1487,-0.08503886736673927,-0.1,1,327.0,732.0,1.0,941.0,1
1488,1488,-0.594955504082227,-0.6,1,403.0,895.0,1.0,1042.0,1
1489,1489,0.017853663725003965,0.0,0,344.0,655.0,1.0,761.0,0
1490,1490,0.010803707594785106,0.0,0,360.0,626.0,1.0,1644.0,0
1491,1491,-0.09180149424979112,-0.1,1,333.0,993.0,1.0,1374.0,1
1492,1492,0.9204869456377898,0.9,0,297.0,979.0,0.0,414.0,1
1493,1493,0.2271769006132094,0.2,0,322.0,505.0,0.0,983.0,1
1494,1494,0.6929156842632236,0.7,0,319.0,723.0,0.0,428.0,1
1495,1495,-0.8968072789294674,-0.9,1,397.0,769.0,1.0,474.0,1
1496,1496,0.5460491778998031,0.5,0,389.0,954.0,0.0,227.0,1
1497,1497,0.4540086578494076,0.5,0,326.0,977.0,0.0,1137.0,1
1498,1498,-0.47768763929977887,-0.5,1,399.0,765.0,1.0,496.0,1
1499,1499,0.6436379365788789,0.6,0,356.0,551.0,0.0,353.0,1
1500,1500,0.6559349578294975,0.7,0,465.0,641.0,0.0,904.0,1
1501,1501,0.6952317862798287,0.7,0,332.0,527.0,0.0,781.0,1
1502,1502,0.08763012899391187,0.1,0,322.0,796.0,1.0,542.0,0
1503,1503,-0.26331691875012475,-0.3,1,460.0,614.0,1.0,426.0,1
1504,1504,0.16364756150559323,0.2,0,458.0,627.0,0.0,315.0,1
1505,1505,-0.5913517754743993,-0.6,1,259.0,601.0,1.0,860.0,1
1506,1506,0.8655204165918919,0.9,0,460.0,675.0,0.0,335.0,1
1507,1507,-0.11895311232866912,-0.1,1,323.0,814.0,1.0,983.0,1
1508,1508,0.30691089291947105,0.3,0,468.0,650.0,0.0,1052.0,1
1509,1509,0.17478205034573446,0.2,0,286.0,980.0,0.0,354.0,1
1510,1510,-0.3948977610754463,-0.4,1,296.0,570.0,1.0,784.0,1
1511,1511,0.6375520122279323,0.6,0,388.0,724.0,0.0,658.0,1
1512,1512,-0.07186291314758875,-0.1,1,379.0,842.0,1.0,379.0,1
1513,1513,-0.1284594420895051,-0.1,1,294.0,947.0,1.0,1949.0,1
1514,1514,-0.3192732351392744,-0.3,1,443.0,622.0,1.0,1185.0,1
1515,1515,0.43057034048055165,0.4,0,400.0,949.0,0.0,281.0,1
1516,1516,0.234444840909803,0.2,0,426.0,610.0,0.0,1204.0,1
1517,1517,0.2305111222997156,0.2,0,497.0,570.0,0.0,1713.0,1
1518,1518,0.07434796051506898,0.1,0,447.0,657.0,1.0,626.0,0
1519,1519,-0.39597389720018783,-0.4,1,422.0,737.0,1.0,471.0,1
1520,1520,-0.33628867764075476,-0.3,1,308.0,734.0,1.0,468.0,1
1521,1521,0.4161973261606353,0.4,0,258.0,947.0,0.0,1575.0,1
1522,1522,0.4350809447169566,0.4,0,264.0,844.0,1.0,252.0,0
1523,1523,-0.5771829823064174,-0.6,1,487.0,581.0,1.0,732.0,1
1524,1524,0.7854376548950621,0.8,0,416.0,953.0,0.0,321.0,1
1525,1525,-0.6663335395639418,-0.7,1,426.0,983.0,1.0,1141.0,1
1526,1526,-0.20818035212882302,-0.2,1,379.0,553.0,0.0,348.0,0
1527,1527,-0.3682057991204104,-0.4,1,400.0,596.0,1.0,664.0,1
1528,1528,-0.6025339316743019,-0.6,1,345.0,779.0,1.0,966.0,1
1529,1529,0.06586601666260439,0.1,0,498.0,757.0,0.0,775.0,1
1530,1530,-0.7081503389341195,-0.7,1,325.0,631.0,1.0,254.0,1
1531,1531,0.5242077398897658,0.5,0,392.0,947.0,0.0,671.0,1
1532,1532,-0.9985198103538748,-1.0,1,433.0,885.0,1.0,662.0,1
1533,1533,-0.7517812597483398,-0.8,1,287.0,564.0,1.0,559.0,1
1534,1534,0.7199352504448082,0.7,0,331.0,655.0,0.0,354.0,1
1535,1535,0.9810126543084388,1.0,0,274.0,929.0,0.0,667.0,1
1536,1536,0.10198476888794827,0.1,0,261.0,923.0,1.0,2266.0,0
1537,1537,0.5274803225840794,0.5,0,364.0,628.0,0.0,678.0,1
1538,1538,-0.05759879749727892,-0.1,1,300.0,970.0,1.0,420.0,1
1539,1539,0.4766875552091534,0.5,0,255.0,516.0,1.0,929.0,0
1540,1540,0.814860258162077,0.8,0,285.0,920.0,0.0,225.0,1
1541,1541,-0.07861248539235444,-0.1,1,443.0,500.0,1.0,1617.0,1
1542,1542,-0.16819518669834177,-0.2,1,372.0,585.0,1.0,973.0,1
1543,1543,-0.7587779952183586,-0.8,1,384.0,704.0,1.0,742.0,1
1544,1544,-0.46493365962496713,-0.5,1,455.0,683.0,1.0,342.0,1
1545,1545,-0.17319982508255283,-0.2,1,431.0,848.0,1.0,811.0,1
1546,1546,0.9251040956256964,0.9,0,345.0,764.0,0.0,241.0,1
1547,1547,0.452787177211043,0.5,0,382.0,950.0,0.0,188.0,1
1548,1548,0.6832720394254788,0.7,0,258.0,731.0,0.0,1141.0,1
1549,1549,0.006512572467684885,0.0,0,329.0,728.0,1.0,383.0,0
1550,1550,0.6848386220763931,0.7,0,372.0,844.0,0.0,1114.0,1
1551,1551,-0.8615822787216507,-0.9,1,399.0,869.0,1.0,782.0,1
1552,1552,-0.9931334416886193,-1.0,1,420.0,990.0,1.0,380.0,1
1553,1553,0.3334523392667932,0.3,0,330.0,718.0,0.0,562.0,1
1554,1554,-0.6784147464630119,-0.7,1,458.0,925.0,1.0,867.0,1
1555,1555,-0.6928773284653809,-0.7,1,332.0,518.0,1.0,390.0,1
1556,1556,0.7891675932613513,0.8,0,321.0,761.0,0.0,468.0,1
1557,1557,-0.3290916376725288,-0.3,1,402.0,523.0,1.0,485.0,1
1558,1558,-0.36547655517434907,-0.4,1,307.0,723.0,0.0,440.0,0
1559,1559,-0.14453290222759918,-0.1,1,388.0,958.0,0.0,2334.0,0
1560,1560,0.5933840789966296,0.6,0,492.0,625.0,0.0,503.0,1
1561,1561,-0.4900384554147308,-0.5,1,459.0,971.0,1.0,640.0,1
1562,1562,0.8714163062100302,0.9,0,401.0,554.0,0.0,395.0,1
1563,1563,0.05069531276033068,0.1,0,441.0,931.0,1.0,468.0,0
1564,1564,-0.859309177607446,-0.9,1,322.0,618.0,1.0,1070.0,1
1565,1565,-0.14638735342397968,-0.1,1,275.0,742.0,0.0,303.0,0
1566,1566,-0.5651268826714322,-0.6,1,273.0,799.0,1.0,368.0,1
1567,1567,0.5649465527734383,0.6,0,267.0,727.0,0.0,706.0,1
1568,1568,-0.4114889401456212,-0.4,1,300.0,930.0,1.0,520.0,1
1569,1569,-0.026802147200989834,-0.0,1,489.0,617.0,1.0,1634.0,1
1570,1570,-0.7903783774590545,-0.8,1,485.0,692.0,1.0,543.0,1
1571,1571,0.9411480667410954,0.9,0,348.0,753.0,0.0,329.0,1
1572,1572,-0.38705341249257663,-0.4,1,286.0,963.0,1.0,1031.0,1
1573,1573,-0.9705204830482277,-1.0,1,443.0,530.0,1.0,277.0,1
1574,1574,-0.5313192762206689,-0.5,1,277.0,844.0,1.0,329.0,1
1575,1575,0.6090574573524004,0.6,0,405.0,723.0,0.0,562.0,1
1576,1576,0.8910219795331693,0.9,0,412.0,598.0,0.0,220.0,1
1577,1577,-0.4350290304640143,-0.4,1,328.0,955.0,1.0,847.0,1
1578,1578,0.5051148193732076,0.5,0,353.0,588.0,0.0,559.0,1
1579,1579,-0.5582388592636311,-0.6,1,312.0,500.0,1.0,368.0,1
1580,1580,-0.7099035865772287,-0.7,1,341.0,778.0,1.0,1141.0,1
1581,1581,-0.7506460205185947,-0.8,1,280.0,782.0,1.0,878.0,1
1582,1582,-0.5237642245354637,-0.5,1,438.0,620.0,1.0,622.0,1
1583,1583,0.09129408397983174,0.1,0,453.0,704.0,1.0,713.0,0
1584,1584,-0.3895223238770711,-0.4,1,368.0,813.0,0.0,679.0,0
1585,1585,0.6240545928792014,0.6,0,282.0,912.0,0.0,606.0,1
1586,1586,-0.5263772585612827,-0.5,1,495.0,617.0,1.0,288.0,1
1587,1587,0.027232314425036153,0.0,0,439.0,644.0,1.0,1067.0,0
1588,1588,0.4532229438101698,0.5,0,494.0,775.0,0.0,751.0,1
1589,1589,0.10874948084959124,0.1,0,382.0,525.0,0.0,393.0,1
1590,1590,0.36129542222904587,0.4,0,487.0,815.0,0.0,2638.0,1
1591,1591,-0.19578062550575903,-0.2,1,487.0,511.0,1.0,222.0,1
1592,1592,0.29411781956629635,0.3,0,412.0,641.0,0.0,967.0,1
1593,1593,0.6499764431804531,0.6,0,489.0,765.0,0.0,906.0,1
1594,1594,0.4357551382720066,0.4,0,443.0,530.0,0.0,587.0,1
1595,1595,-0.2617046222872581,-0.3,1,261.0,924.0,1.0,1345.0,1
1596,1596,-0.7815266025852168,-0.8,1,364.0,824.0,1.0,812.0,1
1597,1597,-0.09265288335646438,-0.1,1,338.0,652.0,0.0,2810.0,0
1598,1598,0.18293563182676675,0.2,0,434.0,758.0,0.0,1578.0,1
1599,1599,-0.10114150350199202,-0.1,1,486.0,614.0,1.0,2170.0,1
1600,1600,0.9376962199231913,0.9,0,319.0,627.0,0.0,474.0,1
1601,1601,0.9162572353275222,0.9,0,386.0,900.0,0.0,324.0,1
1602,1602,0.45801807521681925,0.5,0,352.0,740.0,0.0,918.0,1
1603,1603,-0.02954198063208846,-0.0,1,440.0,749.0,0.0,971.0,0
1604,1604,-0.43375172392238404,-0.4,1,435.0,956.0,1.0,359.0,1
1605,1605,-0.9788401975564796,-1.0,1,359.0,632.0,1.0,639.0,1
1606,1606,-0.9139939100819712,-0.9,1,368.0,655.0,1.0,277.0,1
1607,1607,0.29460254469386893,0.3,0,289.0,609.0,0.0,2812.0,1
1608,1608,0.382491209823985,0.4,0,386.0,704.0,0.0,1220.0,1
1609,1609,0.49623327458607003,0.5,0,304.0,926.0,0.0,940.0,1
1610,1610,-0.46195452161779427,-0.5,1,345.0,922.0,1.0,1153.0,1
1611,1611,-0.32695831442832324,-0.3,1,474.0,935.0,1.0,1511.0,1
1612,1612,0.6123531447076036,0.6,0,272.0,737.0,0.0,671.0,1
1613,1613,-0.9376201125167147,-0.9,1,429.0,573.0,1.0,338.0,1
1614,1614,-0.24777969902560182,-0.2,1,309.0,792.0,1.0,1279.0,1
1615,1615,-0.45857171576563927,-0.5,1,357.0,618.0,1.0,135.0,1
1616,1616,0.5121460915342693,0.5,0,371.0,566.0,0.0,353.0,1
1617,1617,-0.950320459820436,-1.0,1,378.0,571.0,1.0,501.0,1
1618,1618,-0.01280894910016217,-0.0,1,332.0,550.0,1.0,978.0,1
1619,1619,-0.8455532816817963,-0.8,1,268.0,643.0,1.0,399.0,1
1620,1620,0.8522578340445501,0.9,0,373.0,877.0,0.0,390.0,1
1621,1621,-0.09319299679116688,-0.1,1,277.0,894.0,0.0,1569.0,0
1622,1622,-0.8635590643774307,-0.9,1,397.0,914.0,1.0,259.0,1
1623,1623,0.8744363681162874,0.9,0,467.0,572.0,0.0,421.0,1
1624,1624,-0.6243735934581125,-0.6,1,434.0,581.0,1.0,415.0,1
1625,1625,0.2290537420810932,0.2,0,257.0,753.0,0.0,310.0,1
1626,1626,-0.7926093473737934,-0.8,1,263.0,586.0,1.0,1441.0,1
1627,1627,0.3404408264964638,0.3,0,468.0,817.0,0.0,735.0,1
1628,1628,-0.16552131537776704,-0.2,1,401.0,673.0,1.0,906.0,1
1629,1629,-0.8686701341680056,-0.9,1,406.0,937.0,1.0,407.0,1
1630,1630,-0.9917952683524582,-1.0,1,337.0,835.0,1.0,338.0,1
1631,1631,0.5074079779275635,0.5,0,494.0,530.0,0.0,556.0,1
1632,1632,-0.8746317809173036,-0.9,1,432.0,873.0,1.0,495.0,1
1633,1633,-0.07009602496756862,-0.1,1,320.0,867.0,0.0,563.0,0
1634,1634,-0.6185671368690366,-0.6,1,354.0,660.0,1.0,346.0,1
1635,1635,0.9706147788489004,1.0,0,411.0,891.0,0.0,1838.0,1
1636,1636,-0.7504263084531195,-0.8,1,361.0,728.0,1.0,941.0,1
1637,1637,0.6297156422985024,0.6,0,420.0,940.0,0.0,660.0,1
1638,1638,-0.6750672567872813,-0.7,1,264.0,780.0,1.0,306.0,1
1639,1639,-0.6179613059843538,-0.6,1,322.0,992.0,1.0,356.0,1
1640,1640,-0.25405653570263054,-0.3,1,302.0,629.0,0.0,689.0,0
1641,1641,-0.4448331932144758,-0.4,1,469.0,908.0,1.0,1113.0,1
1642,1642,0.8607449641525207,0.9,0,271.0,804.0,0.0,815.0,1
1643,1643,-0.7694562901081952,-0.8,1,300.0,611.0,1.0,499.0,1
1644,1644,-0.15262670328902428,-0.2,1,390.0,641.0,1.0,1419.0,1
1645,1645,-0.6528081598084887,-0.7,1,486.0,843.0,1.0,431.0,1
1646,1646,-0.9980727704193468,-1.0,1,496.0,920.0,1.0,314.0,1
1647,1647,0.525360966477447,0.5,0,341.0,716.0,0.0,533.0,1
1648,1648,-0.3739754668118789,-0.4,1,253.0,708.0,1.0,549.0,1
1649,1649,-0.34067871694872687,-0.3,1,299.0,755.0,1.0,526.0,1
1650,1650,-0.15930028704897103,-0.2,1,384.0,625.0,1.0,2621.0,1
1651,1651,-0.08987507775886283,-0.1,1,461.0,897.0,1.0,382.0,1
1652,1652,0.884376882225669,0.9,0,364.0,572.0,0.0,534.0,1
1653,1653,0.4110529780457157,0.4,0,423.0,620.0,0.0,2817.0,1
1654,1654,-0.13980224188889445,-0.1,1,430.0,875.0,1.0,635.0,1
1655,1655,0.0494184088337799,0.0,0,428.0,862.0,0.0,1170.0,1
1656,1656,0.6953768712786712,0.7,0,387.0,718.0,0.0,605.0,1
1657,1657,-0.8914572745312803,-0.9,1,296.0,577.0,1.0,247.0,1
1658,1658,0.22458486132499833,0.2,0,442.0,881.0,0.0,347.0,1
1659,1659,-0.8231467356864794,-0.8,1,261.0,958.0,1.0,981.0,1
1660,1660,0.26169134539396355,0.3,0,279.0,846.0,0.0,1205.0,1
1661,1661,-0.11571223335341174,-0.1,1,367.0,971.0,0.0,1132.0,0
1662,1662,0.2764157208246467,0.3,0,388.0,677.0,0.0,2865.0,1
1663,1663,-0.18285968127866137,-0.2,1,357.0,737.0,1.0,1616.0,1
1664,1664,-0.9006967903153624,-0.9,1,277.0,859.0,1.0,784.0,1
1665,1665,0.07971886359699565,0.1,0,317.0,843.0,0.0,1380.0,1
1666,1666,-0.8568812694353796,-0.9,1,402.0,967.0,1.0,271.0,1
1667,1667,0.726263751328105,0.7,0,263.0,755.0,0.0,802.0,1
1668,1668,0.9513638826255173,1.0,0,367.0,575.0,0.0,518.0,1
1669,1669,-0.07009047041454686,-0.1,1,300.0,913.0,0.0,3287.0,0
1670,1670,0.8837553641134548,0.9,0,352.0,745.0,0.0,783.0,1
1671,1671,0.2864166347525723,0.3,0,367.0,552.0,0.0,251.0,1
1672,1672,0.5494388926162375,0.5,0,300.0,968.0,0.0,2122.0,1
1673,1673,-0.00855312917436546,-0.0,1,284.0,652.0,0.0,1454.0,0
1674,1674,-0.6082139349551252,-0.6,1,426.0,842.0,1.0,552.0,1
1675,1675,0.11848743039792109,0.1,0,330.0,660.0,0.0,870.0,1
1676,1676,-0.29747469345418187,-0.3,1,384.0,851.0,1.0,265.0,1
1677,1677,-0.5818223291425415,-0.6,1,475.0,695.0,1.0,490.0,1
1678,1678,0.22244630199601545,0.2,0,297.0,915.0,1.0,608.0,0
1679,1679,0.6750503985291787,0.7,0,458.0,754.0,0.0,508.0,1
1680,1680,-0.8238411690002974,-0.8,1,279.0,802.0,1.0,319.0,1
1681,1681,0.2504255387226235,0.3,0,297.0,693.0,0.0,1180.0,1
1682,1682,0.056959296213276334,0.1,0,391.0,663.0,0.0,956.0,1
1683,1683,0.26826034828101464,0.3,0,308.0,981.0,0.0,941.0,1
1684,1684,-0.39903559450708626,-0.4,1,302.0,933.0,1.0,1305.0,1
